time_seconds,acc_z,acc_y,acc_x,gyro_z,gyro_y,gyro_x,mag_z,mag_y,mag_x,grav_z,grav_y,grav_x,orient_qz,orient_qy,orient_qx,orient_qw,orient_roll,orient_pitch,orient_yaw
0.48469140625,0.37754840918677934,0.11188078541312146,-0.278138888459562,0.15118554676947699,-0.1259753276263081,-0.13548135659628135,-37.63125228881836,16.912500381469727,-8.40000057220459,8.603707266433156,4.615336266968695,-0.9186479072870397,-0.14668715186392028,0.01092205145159511,0.2477245543126792,0.9575735020453698,0.10630139059689798,-0.4906780181426076,0.33064295702958596
0.49469140625,0.3328226984285374,0.18161154176130478,-0.3559324660515482,0.18431308674222377,-0.0594119921759177,-0.15011527736816369,-36.89062690734863,16.706250190734863,-8.071875333786009,8.607974682267853,4.600330503030439,-0.9538054696654276,-0.15399204013795195,0.011120286397635898,0.24715218399836264,0.9565825387889297,0.11051975906648354,-0.4886311388403069,0.34679893263840933
0.5046914062500001,0.2621001236215369,0.20575963313712675,-0.24059050709609117,0.24197128532788184,0.03664782879669878,-0.13673877279516283,-36.15000152587892,16.500000000000007,-7.743750095367427,8.599062004004704,4.611794488033139,-0.978031816769023,-0.15581001329453356,0.012372233791473149,0.24820071788843098,0.9560128601668317,0.11473115228272876,-0.4900991878664596,0.3518438360277197
0.5146914062500001,0.20704383527672726,0.20170175032131238,-0.040714084016697016,0.305335748536241,0.14006006645049549,-0.11573594322818515,-37.48125076293947,17.296875000000007,-7.312500238418575,8.586364747494244,4.631807597674819,-0.9946130308972495,-0.1551829455012696,0.014093729197094042,0.24997154783569434,0.9556309114732014,0.11893943723509752,-0.49313353480589855,0.3519375006987562
0.5246914062500001,0.15198754693191768,0.19764386750549798,0.15916233906269706,0.3687002117446001,0.24347230410429221,-0.09473311366120744,-38.812499999999986,18.09375,-6.881250381469732,8.573667490983786,4.6518207073164985,-1.011194245025476,-0.15199591271507773,0.01389796281071257,0.2504028240742137,0.9560252663411166,0.11693339383866777,-0.49445254859608084,0.34487899268326483
0.5346914062500001,0.18074051455266396,0.24614605707494003,0.44278919921329457,0.38756926403864894,0.18364986392891158,-0.10708666512944602,-37.58437538146971,18.084375381469727,-7.378125429153448,8.573866074414912,4.66127755005779,-0.9624499001816408,-0.1476947089636398,0.012867748520814475,0.2502510877118603,0.9567574910200958,0.1122226946231685,-0.4950249996809506,0.3347076518096018
0.5446914062500001,0.24553713886580902,0.3172526378056686,0.7624344199477567,0.38730227584521587,0.053625455961486185,-0.13378571976058462,-36.35625076293945,18.07500076293945,-7.875000476837153,8.579610742490985,4.666194483027453,-0.8856111403033164,-0.14331356413037682,0.009983936809364307,0.24991436275090112,0.9575475423913956,0.10335997140607694,-0.4958065805210989,0.32331174866756
0.5546914062500001,0.3107598103714538,0.3557691640625585,1.070540287736034,0.33381468902666145,-0.06455685608824038,-0.17289779337120617,-36.46875190734863,17.625000953674313,-7.359375476837153,8.588418781363433,4.66852580241043,-0.7820333687313819,-0.13875905856097473,0.005262727495055205,0.24875479529688801,0.9585367515629375,0.09007407070839908,-0.4953899774049559,0.3103296628988359
0.5646914062500001,0.45350404957927126,0.284874432072878,1.355187687667133,0.22174260036888463,-0.18607492453669383,-0.2308120130660993,-36.58125305175781,17.1750011444092,-6.843750476837153,8.605587268585914,4.656335611721324,-0.6550285515506702,-0.13414603270142475,0.00010076021175078366,0.247282786319689,0.959599254957307,0.07567181463831019,-0.4944330699777312,0.2969000909030154
0.5746914062500001,0.6136715025688692,0.11396446263975996,1.5031421318064484,0.06509265683763628,-0.325811911685275,-0.3140626076446417,-36.60000183108449,18.93745697129332,-6.375011920649557,8.633388457660336,4.621625675844388,-0.5208459334567321,-0.12895259460134398,-0.005178222792071665,0.2445093596581816,0.9610125072938368,0.06026461943743271,-0.49073671670324637,0.2818805530274111
0.5846914062500002,0.6793729648773097,-0.021890859956819893,1.4066054267334258,-0.10403007115794835,-0.44839688821597284,-0.417924277342906,-37.16250228881836,18.825000762939435,-7.800000190734865,8.668225706498966,4.568438533329556,-0.39723503696421075,-0.126005058118642,-0.010467656982622437,0.24067601452712695,0.9623295581805303,0.04580452787650258,-0.48459855754921183,0.27172737881258213
0.5946914062500002,0.5522776786823769,-0.11268747208562412,1.116530623043223,-0.23018375584157658,-0.477647248074994,-0.5196088222924262,-37.44374542253092,17.381285628421228,-7.931246891102289,8.705235729864128,4.505172313965164,-0.2999202683766762,-0.12540168557993098,-0.0149095664801344,0.23648927170692544,0.9633886413553211,0.03444740434577603,-0.47732221361342214,0.26726925218722436
0.6046914062500002,0.2938478639212251,-0.333043185465666,0.8532450839186333,-0.28856297407876125,-0.3581034365596998,-0.5885226161718974,-36.69375228881837,18.356250762939446,-8.118750572204572,8.744415325357314,4.43266131980717,-0.2345265139223821,-0.12573368979466693,-0.01785049538644911,0.23202339040962586,0.9643816205162012,0.026819502493746934,-0.4690163122486673,0.26570603300181944
0.6146914062500002,0.030399589206192013,-0.6195531146537699,0.5929361993438792,-0.2839673630401968,-0.10856480695341666,-0.6041528395580833,-36.956246643204246,18.000008697316048,-7.312520160196812,8.784978191760022,4.353159693358921,-0.20698271483187256,-0.12589038288481255,-0.018728537827690354,0.227455085988562,0.965432888646093,0.02355844409213354,-0.45994915243573176,0.26485014311326305
0.6246914062500002,-0.3227431339478804,-0.760581084864353,0.2201165691925771,-0.21942056141965555,0.23906451269817797,-0.5612013946225121,-37.10625076293943,18.88125038146971,-7.087500095367467,8.820648065452788,4.279424677173127,-0.227206511609854,-0.12573611259674888,-0.01709962343717891,0.22355308574603952,0.9663944029519789,0.02574983502353035,-0.45157440012093975,0.2646754661487843
0.6346914062500002,-0.6615834132276797,-0.7435601611186161,-0.1731281575083473,-0.10266051521337857,0.6373051466544657,-0.4690421979909543,-36.243772582475096,18.131268691569566,-8.699961396208504,8.846511484727127,4.221300316519822,-0.29701535377396887,-0.12651043964019346,-0.013232744286383961,0.22084693580470507,0.9669753413810983,0.03355635630908819,-0.44499606708842127,0.2677709114064881
0.6446914062500002,-0.716209894118351,-0.6680308190814452,-0.39592209594091704,0.03655374874502097,0.9559447660040442,-0.3550693658070762,-36.15000152587889,19.350000381469727,-6.487500190734863,8.863163299493326,4.1776283115900545,-0.3993119730965235,-0.12583682385014724,-0.007465565306384341,0.21918174346288524,0.9675020509294372,0.04501737404191017,-0.44006729542679524,0.2687396800759611
0.6546914062500002,-0.4402191255100596,-0.5274408771997646,-0.5063637784551897,0.16626419781543966,1.056414573960172,-0.2457799135977041,-35.662514190364625,19.33125160214305,-6.487500190734863,8.872939172846799,4.144852121820813,-0.5089164003244785,-0.12440290449962971,-0.0012333456979866332,0.21816684811259918,0.9679449784378746,0.05728941866717284,-0.43637590196810244,0.2683453003764356
0.6646914062500002,-0.13443890855499366,-0.3019406031234048,-0.5559074140947111,0.27909473756845793,0.9129274072712283,-0.15281112764015792,-35.19375228881835,19.16250038146974,-6.6562504768371475,8.876835940211379,4.124155484944662,-0.6016632200416594,-0.12304837542843626,0.004017953969299689,0.2176844257763176,0.9682207288894837,0.06767380579043797,-0.43404810620809603,0.2677443745474308
0.6746914062500002,0.033746827671426276,-0.10578158499633575,-0.44278550248676096,0.3718039891030057,0.6075243428540893,-0.06940959926670252,-35.02500564566999,19.762486114850276,-6.168762187671841,8.876763511062938,4.115881139624295,-0.6577131887381535,-0.12128003725236983,0.007374627670628133,0.2176123467981706,0.9684417429628023,0.07395840728097657,-0.4331181430273927,0.26544544239724627
0.6846914062500002,0.06523188967669402,-0.1202799298268043,-0.028900068305510784,0.43325658733295724,0.24952416524057008,0.01583229368237543,-35.41875076293946,19.668750762939446,-7.443750381469665,8.87655154058119,4.115482363899388,-0.6633339784062898,-0.11957130951125651,0.008052370225355092,0.21761661471993357,0.9686487317391627,0.07459014007738658,-0.43307334745286513,0.26205605455796016
0.6946914062500003,-0.04496944324413439,-0.3111341737494746,0.5880703728454841,0.44332327684528194,-0.06724895604846823,0.1031261384725153,-35.868740539800385,19.350008163271468,-4.668818033473993,8.87789028859201,4.119487263182582,-0.6185849192258771,-0.11627785245743788,0.006446724966556541,0.2175112748850248,0.9690835821087916,0.06956427728445275,-0.4335233467637721,0.25415824863894715
0.7046914062500003,-0.23215048586713505,-0.4517774896155352,1.1256723568946487,0.3965062267417432,-0.27856974443266214,0.18633990517878007,-35.53125000000002,19.593750000000018,-6.600000381469697,8.878367777087345,4.12948092150086,-0.5393682597976412,-0.11310603325325415,0.00298817599318216,0.21752567529760033,0.9694720825495168,0.06067515193025688,-0.43464662236186513,0.24568560021955493
0.7146914062500003,-0.43496315211309183,-0.4863982776594603,1.4221333356427261,0.3179970721692108,-0.3715662524251485,0.2457694992031359,-36.56247482361273,20.324982910573492,-5.268782691166718,8.875776983180437,4.146062514157312,-0.44652388013996797,-0.10960490775221825,-0.001144574301321114,0.21784552364019824,0.9698055678672559,0.05026387121121316,-0.43651173808175175,0.2362276961976254
0.7246914062500003,-0.659281785226234,-0.4311680883805231,1.4769694297653788,0.23642032673873628,-0.3671384220116748,0.2636475942318446,-36.43125152587887,20.887500762939414,-5.343749999999999,8.869568131570833,4.1679844179801435,-0.357093165170334,-0.10616289699074088,-0.005145020653328161,0.21851414141128653,0.9700254815821547,0.04023652709509895,-0.43897997501917335,0.22699367142418625
0.7346914062500003,-0.9820784453641813,-0.38844266403356503,1.3888389766777907,0.17020370354545916,-0.27264008950216084,0.2376237633143269,-35.437524260919524,19.7062799828071,-5.325000743847806,8.860879362704665,4.192146110158866,-0.2830059600702975,-0.1031700813304479,-0.008461072035693733,0.2194250148806998,0.9701203487035354,0.03192607596335869,-0.4417036308600818,0.21906503739430966
0.7446914062500003,-1.333004880516373,-0.42170788617616994,1.2354051556772971,0.12245473625119657,-0.09503441962659206,0.17988823220900946,-35.700000762939496,20.775001525878874,-6.337500095367401,8.851942866101105,4.214133875603917,-0.2326174225677859,-0.10078593104966854,-0.010667963641864746,0.22036759006211457,0.9701364479794156,0.026271605913039984,-0.44418519193794204,0.21296568772483276
0.7546914062500003,-1.6027917392290831,-0.46975640179664296,1.0212148211579768,0.09129468167198046,0.1315640729028,0.1043920791721585,-36.881223450373874,19.893772658785792,-5.4375219721221235,8.844418291712264,4.231077753682881,-0.21101380925788182,-0.09843598263871059,-0.011353914297691092,0.2212037302368374,0.9701799793861513,0.023853643960916552,-0.44609948494370405,0.2076414678897178
0.7646914062500003,-1.7122184590282423,-0.4510639491350706,0.6765835553908668,0.0761951337334972,0.3558533532995872,0.022532266649255686,-35.15625000000008,19.21874999999999,-5.943750381469765,8.838869985523537,4.242167442705143,-0.22068499528670565,-0.0966203508055075,-0.010499213807688508,0.22188392168178858,0.9702169740387068,0.024962558314207153,-0.44735324172195534,0.20419709237315326
0.7746914062500003,-1.65120929443418,-0.3915273313982625,0.28708276916268327,0.07674956217168204,0.5207948339948076,-0.0569889591371926,-37.42494766363132,18.90000930763408,-7.087472172472176,8.835742445007938,4.2466399281230816,-0.2564834570627078,-0.09567206445461363,-0.008445035432735545,0.22232907498410373,0.9702289386218206,0.029019925724330372,-0.4478590621543486,0.20318976460804852
0.7846914062500003,-1.5211561060894763,-0.3175297480332561,-0.048024013781479136,0.09201458681977372,0.5900021164278862,-0.12571348355864792,-36.39375305175778,18.862501144409194,-5.550000190734904,8.834883788408355,4.245030257761163,-0.3072830330378434,-0.094705871938791,-0.005572057488593645,0.22251650636615594,0.9703011139862594,0.03476645621224572,-0.4476769580205802,0.2025081326950517
0.7946914062500003,-1.3961694789743302,-0.23266044343320208,-0.2876888328413916,0.12377574606691691,0.5723559995852625,-0.17627829252772134,-35.36252822814507,19.29374023464137,-6.768720436822653,8.835575954496917,4.239297388338536,-0.3616728126998358,-0.09423601435108565,-0.0026037730491907133,0.22249200028490498,0.9703651461335862,0.04091046873883017,-0.4470286116401164,0.20292105530053908
0.8046914062500004,-1.2649312320004693,-0.15331257456096536,-0.38828832410698344,0.16693088740033962,0.4990327061528339,-0.2004791940163848,-37.33125305175777,20.831251144409187,-4.781249999999963,8.837107381679454,4.231693914934232,-0.41024028151231845,-0.09319109055370345,0.0002029271654898912,0.22233206022181104,0.9705061309516482,0.04638876020698648,-0.44616896473432077,0.2019845095765938
0.8146914062500004,-1.1335827282680215,-0.09710881253545814,-0.3824087654074907,0.2131416631637919,0.3990377877835292,-0.1950727890408571,-36.00003250050169,21.037495346210903,-3.6562777035624907,8.838775439628506,4.22443973141322,-0.44758254723565116,-0.09154134787316207,0.002561431331918503,0.22212708316515242,0.9707068183726292,0.05059504784049354,-0.44534913921527175,0.1995097418306658
0.8246914062500004,-1.0359409487124598,-0.07814576095557482,-0.2809935356584295,0.2468083104311149,0.29314112334514525,-0.1613386265790712,-35.775001525878885,19.481250762939464,-3.243750095367464,8.839842472038603,4.219639562984527,-0.471327141368256,-0.08969776028935485,0.00424324707906094,0.22197993029481836,0.9709069093342707,0.05326796872695632,-0.44480678312073607,0.1962969656131466
0.8346914062500004,-0.9666844565783856,-0.08707742166304464,-0.16683586449559806,0.26098304203162026,0.198053625802719,-0.10804479700661238,-35.06251739463208,19.79999336260744,-4.199976940720366,8.83966733241282,4.218687235970588,-0.4830475510828403,-0.0881196061469831,0.005218888218683752,0.22197985599871148,0.9710469398321484,0.05459115313751205,-0.4446992233639212,0.19334358039208285
0.8446914062500004,-0.9081174330350004,-0.0856422403214935,-0.08466408646894813,0.2627048570395029,0.11700454554574033,-0.045094461497896046,-35.85000228881833,20.437499999999993,-3.862500190734892,8.837627137993469,4.222692910346216,-0.4853768322528552,-0.08653499862638336,0.0056831224107491895,0.2222028073712684,0.971135835945081,0.05486650830355405,-0.445151759711659,0.1901651714084658
0.8546914062500004,-0.9129048228733617,-0.0528647592508452,0.020649796567934406,0.25800480386433944,0.05612472328118387,0.01618395300669973,-34.95002273509649,20.193756332242856,-4.724979324850275,8.8331461607962,4.232673273442043,-0.47995345544122947,-0.08519695058319475,0.005659495889283844,0.22271684906942935,0.971136602671319,0.05428204861616059,-0.4462797192381492,0.18733047927002458
0.8646914062500004,-0.9996656985905712,0.018318046112691014,0.08046420277425659,0.2521309865934402,0.030985362510832063,0.06732911311745951,-35.34374999999996,19.406250000000092,-3.9562501907348664,8.825717742087814,4.249118505309467,-0.4711623983313615,-0.08376183188738288,0.005453966375982267,0.22357035977122183,0.9710664057979057,0.05333437086893582,-0.4481396857938679,0.18424636483723467
0.8746914062500004,-1.14046488140623,0.06502827627915297,0.08581625042723534,0.2508696019649505,0.04965427986524833,0.10292319628545668,-34.312525176387254,21.524949799809654,-4.031248168994674,8.815717967074281,4.270607262832302,-0.46400396363338814,-0.0822048971886465,0.005340870833483868,0.22471025542799034,0.9709369234663413,0.052585048107559734,-0.45057254844106814,0.18098179558782565
0.8846914062500004,-1.2553612579448825,0.0925005861801118,0.054132473157742333,0.25255227392962104,0.09352047890439509,0.11392887345520131,-35.250000000000036,20.212501525878892,-4.443750381469708,8.804320081797089,4.294338691624406,-0.4613709794184174,-0.08078548899757447,0.005425001685154714,0.22599750243686104,0.9707568110564416,0.052354881941501806,-0.45326252727504357,0.17813062835036114
0.8946914062500004,-1.3245169620703943,0.16828682265256478,-0.005293782495628077,0.25426617443457983,0.13693625430299056,0.10027787396528975,-35.99998168990018,19.98750663744844,-4.0312600705642145,8.792350963643226,4.31853964673232,-0.4637279769080991,-0.07932367698034667,0.0057810292879142975,0.22733481755693027,0.970562983430727,0.05269348044526023,-0.4560093555577478,0.17532620869554486
0.9046914062500004,-1.390378459293862,0.2775710675094295,-0.08551162071962268,0.25713812037109846,0.17361587362802752,0.06507848782034403,-33.468750000000114,20.362501144409205,-3.8812501430511697,8.78050992482909,4.341804284252104,-0.47080616708109146,-0.07783199431800175,0.006398652451160015,0.22864234514767526,0.9703726992466952,0.05356836072939004,-0.45865333047249385,0.1725815377257468
0.9146914062500004,-1.445782560867553,0.37705090709085043,-0.1600797531149974,0.25821851027298987,0.21310570298610185,0.015795695797098996,-36.05618835599727,20.962486877789733,-4.368738193803712,8.769559314835904,4.362573885091346,-0.482752592321278,-0.07645130789464333,0.007259026161502275,0.22983442050400657,0.9701948359985044,0.05499345070044381,-0.46101673321102926,0.17018401032065314
0.9246914062500005,-1.4394294715801228,0.46945716283376476,-0.2495020710692871,0.2625868820606079,0.249853559836047,-0.03940845742031611,-35.062500000000036,20.85000038146971,-3.8250000476836985,8.760104251111555,4.37966468804126,-0.4993858279660671,-0.07501084694022607,0.008397614860602042,0.23084210910552788,0.9700587772003082,0.05694550720836993,-0.46296353338704666,0.16777110956617441
0.9346914062500005,-1.3887231234228261,0.5539934319173307,-0.33306169298061594,0.2696361961418319,0.27622731174524007,-0.09376623553014697,-35.81248168990019,20.475009536519632,-3.4312597081686698,8.752431476384903,4.392651586562704,-0.5194754285673737,-0.07349934081680859,0.009778415393283273,0.23153831855777615,0.9699936497680194,0.05931416397435535,-0.4642455799895205,0.1652826809307808
0.9446914062500005,-1.303289977939759,0.6066549558776799,-0.3902608013947321,0.2831143624591862,0.28739440938104466,-0.14212509037517407,-35.81249999999994,20.475000381469723,-3.431250095367451,8.746784862459862,4.401314160292551,-0.5408261858053779,-0.07197572889009939,0.011205135419305198,0.2321667760787834,0.9699437538097571,0.06176059530009201,-0.46538405935575505,0.16278169830905906
0.9546914062500005,-1.1744553226846501,0.6103648378579605,-0.4025119258072664,0.2959152940624887,0.27820059676572584,-0.18266377435840422,-34.575030974585516,20.400003356860946,-3.8624896624251424,8.74353787923351,4.405270928494144,-0.5607726948710657,-0.07056365347372914,0.012564549920311145,0.23247688248610215,0.9699571483092683,0.06404801504895051,-0.46588384029807317,0.16044287575578808
0.9646914062500005,-0.9547179805394079,0.6234923341210838,-0.3380375154615272,0.3030195388795523,0.2424168873127047,-0.2151724707162829,-35.062500000000014,19.800001144409244,-4.200000286102233,8.742849894375471,4.404715624926277,-0.5757006643629992,-0.06926150623247859,0.01365919697563468,0.23249090195605177,0.9700329031912064,0.06575322309215102,-0.4658204156866297,0.1581633918518553
0.9746914062500005,-0.7373884464904965,0.6539794161190376,-0.22848643646379257,0.2985067208246191,0.18485549958162395,-0.23705478019053813,-35.32499435438589,21.24371627892745,-2.793784379126686,8.744287700196978,4.400844648341459,-0.5834215222150918,-0.06765030610997415,0.014463243670819005,0.23228460231146114,0.9701843066143973,0.06662153281893479,-0.4653786838559422,0.1550269181292979
0.9846914062500005,-0.4962708195151575,0.6894183955314899,-0.13653912575995597,0.28288240483333665,0.12518370643313215,-0.24422259394619988,-35.19375228881834,21.76875114440916,-3.1687500476836794,8.747249007014956,4.394797289280455,-0.5846094124315302,-0.0661254764983325,0.014912023804082457,0.2319310367390416,0.9703673047166947,0.06673427859099847,-0.4646887826941731,0.15187528341372494
0.9946914062500005,-0.2557480595204321,0.7050792233815624,-0.07770549192457935,0.25393891872050495,0.08681486183919271,-0.23543028458290877,-34.83751022319495,21.393760299459085,-2.512516069021052,8.75099454310175,4.387629555072145,-0.5823818298590253,-0.06465660785920144,0.015171547531811646,0.231502104999473,0.9705646741926214,0.06645240030693496,-0.46387138255563254,0.14873911972965775
1.0046914062500005,-0.021344915029090916,0.666410223031428,-0.07271146821121424,0.21107727426077105,0.07807283876041822,-0.21276250145921682,-34.425003051757905,20.98125076293942,-3.6750001907348406,8.75501917154133,4.379783279404379,-0.5809616167531838,-0.06366614421046023,0.015360430043774138,0.231046074521166,0.9707359366282483,0.06626041636622602,-0.462976929359179,0.14660723550732455
1.0146914062500005,0.21383303976910112,0.6156614904467146,-0.20123496965896595,0.16262134518499557,0.09064294276122681,-0.18372168441253464,-36.43120254639918,20.231269073039257,-3.1687624070045763,8.75883494339415,4.371638615443698,-0.5847707058127811,-0.06299202342555779,0.015747664276419684,0.2305984774501222,0.9708801223202558,0.06666455686563598,-0.46204890585328484,0.14526768615576918
1.0246914062500005,0.4238439262749323,0.5950800931193729,-0.41050864389022723,0.12712035018670717,0.10710176404551151,-0.15865361470160314,-33.525001525879006,22.912500381469677,-1.1062500476837391,8.762177687435653,4.363564550933512,-0.5948893663265067,-0.06212913598371526,0.01650862632085047,0.23017512433429455,0.9710234589439822,0.06778875683675092,-0.4611293759011812,0.1437104644601377
1.0346914062500006,0.562093557367177,0.5898048318739249,-0.6296113691429958,0.12320347563598287,0.12012813355029081,-0.13947416062368906,-35.73744903692614,21.787527846619433,-1.6312372067725764,8.764929819717443,4.3559816640201285,-0.6097342639451786,-0.06148471305929617,0.01746261302241068,0.22979961385187317,0.9711367538617385,0.06945321539471025,-0.4602660996715446,0.1427332769906955
1.0446914062500006,0.6597774738892834,0.5878042226367914,-0.7573540712134125,0.14656486464339183,0.13594712591966857,-0.12972077744349958,-34.44375228881847,22.425001144409105,-3.5250000953672522,8.76737989042901,4.348625745291774,-0.6267758780155759,-0.06120782089795198,0.01844328366062075,0.22945096684235414,0.9712185956767312,0.07136799662766967,-0.45942903378900457,0.1425723217791169
1.0546914062500006,0.7763539084154937,0.574543042004249,-0.8140688391126178,0.18275726430289524,0.15249966642469762,-0.13146889351906288,-36.149959870420474,21.300028609558886,-0.8250659640441773,8.770196492791179,4.340375568668392,-0.6442934687860765,-0.060360970246606194,0.01958572344524469,0.22904275933798857,0.9713454860598071,0.07333211467246632,-0.4584907214676406,0.14124262510560234
1.0646914062500006,0.982665048715269,0.5855608538743297,-0.8061512198315117,0.21933606399227729,0.15214802246171927,-0.14276978362439713,-35.0437507629394,19.837501525878974,-3.9187500476835595,8.774072947774664,4.330223956730765,-0.6596587547020505,-0.059534912588232715,0.02061579506262993,0.22852048552535237,0.971498160832895,0.07504141512775406,-0.4573365976769313,0.13988272719620454
1.0746914062500006,1.1770445184890996,0.5966278098230925,-0.7336146548348395,0.2560943639784683,0.13100634751413395,-0.15558580694620602,-34.29376907303926,20.887475128818352,-1.5750572667456058,8.779211756176704,4.318192162488638,-0.6700783211574203,-0.058555834587212405,0.021427725519419134,0.22787163914628653,0.9716925014569496,0.07617776852870221,-0.4559696693108782,0.13806051369936534
1.0846914062500006,1.2524578290562838,0.6463949316587608,-0.655201511935404,0.2929404160892103,0.12434698699402127,-0.16123995107429134,-36.037502288818175,21.356250762939503,-1.6687500476837496,8.784609209993684,4.306138655179688,-0.6768778842923228,-0.05733905321185643,0.022104466914275263,0.22720221388939607,0.9719065952747458,0.0769007018373728,-0.4546011414540731,0.1356515635513
1.0946914062500006,1.147518093020609,0.7219195675308417,-0.6076869566758715,0.32619389448047376,0.19297898667389907,-0.15024673325139584,-33.24381973101931,22.087483673512967,-2.174987831414003,8.788329433386448,4.296858273725208,-0.6874798930713132,-0.05583876516726145,0.023036331899022083,0.22669157003668364,0.9720914811421122,0.07806739856570886,-0.45354809968808696,0.1327798063807524
1.1046914062500006,0.9926465272623234,0.7995589449024305,-0.5530461889319779,0.35246252588196997,0.34636531169311224,-0.12195247856198534,-34.81875228881837,20.381250381469886,-2.6062500476836448,8.788886417818789,4.292119061162566,-0.709582273326254,-0.05399174441712733,0.02463620932186829,0.2264601431100603,0.9722103213076958,0.08056148694015194,-0.45301045687325386,0.12953175731486152
1.1146914062500006,1.0243565384739926,0.787796393098114,-0.4780552558905757,0.3585891294535101,0.49535369125290873,-0.0918845699302027,-34.96874633803592,22.78119140768994,-1.5375261157346618,8.787215934402909,4.289831023884305,-0.7432395532342118,-0.051895641370829235,0.026891354325145323,0.22639082992328677,0.9722805979791304,0.0843810208266906,-0.4527510226893289,0.12609489379216862
1.1246914062500006,1.1811470862985185,0.6410041885479493,-0.27622893594225095,0.3340771444090601,0.529230626413359,-0.07693190390898838,-34.181251525879006,22.743751525878814,-1.5375000238418193,8.785952944626825,4.286283793800578,-0.7778367447538583,-0.0497618885781725,0.0292074581235758,0.22624610835357123,0.9723590641924237,0.08830153300683889,-0.4523488248210356,0.12259530050830317
1.1346914062500006,1.264542717970772,0.5086933034265337,-0.06495936839226277,0.28426282871451275,0.44179080734722986,-0.08736887622191283,-35.6812149056793,21.412532881924818,-0.9562642022485687,8.786838107524776,4.279675147823897,-0.8038493106529659,-0.04784532758908793,0.031030332803736495,0.2259041644051839,0.9724784966017905,0.09122926680677264,-0.45159969130587746,0.1192900503104497
1.1446914062500007,1.3349510672964477,0.39032172284922695,0.18506619130930546,0.21081461475952137,0.2910278430308976,-0.1300397530210166,-34.18125152587904,21.35625076293958,0.43125000596034707,8.791734199655574,4.2672437622610335,-0.8163320736892431,-0.04630838847440861,0.032068321347451106,0.22520609365763725,0.9726812856139061,0.09258665241056518,-0.45019128680999454,0.1163606041185793
1.1546914062500007,1.6232261523269813,0.19767083207428324,0.3656084177621547,0.10375956554322274,0.09999121800505004,-0.2186956558017562,-36.22495239377776,23.268704453645363,-1.3312070427891403,8.803822040371132,4.2426778978290525,-0.814050013362016,-0.04540038202628082,0.032212078781299024,0.22381265516807228,0.9730409525571531,0.09220346488422167,-0.4474111503128075,0.11424069632922633
1.1646914062500007,2.0494632082332607,-0.01791659069748902,0.38644300693194455,-0.02395675199623143,-0.148760207974094,-0.3532357776040807,-33.30000305175788,21.356250762939464,-0.6937500238418667,8.825615576333696,4.200807011479338,-0.7948375125540293,-0.04537393556543703,0.031303703476082016,0.22144536191078862,0.9736130053548656,0.0898187442178156,-0.44268119726066507,0.11336538581779075
1.1746914062500007,2.372772407919231,-0.1877591848566088,0.22577916440112417,-0.14551169448354576,-0.3960215602396947,-0.49972103886876384,-34.25622894345973,21.52499740608782,-0.8249968434156679,8.856477200659631,4.141689079222202,-0.76085710222799,-0.0462963085955401,0.02944997804661118,0.21811968246363372,0.9743772829498322,0.0857009190934635,-0.43602079677739874,0.11395425291046607
1.1846914062500007,2.4980110801765747,-0.38085111117642645,0.014212105657982976,-0.23199943548829965,-0.5383749777523228,-0.602376311013022,-34.23750305175776,23.325000762939457,0.05625000223502548,8.892871420665365,4.070286597309705,-0.7204456485808415,-0.04791696090385703,0.027145058335288276,0.21412701196971262,0.9752506161718189,0.08083945543790584,-0.42800359649055575,0.1157670317984385
1.1946914062500007,2.4900304447164343,-0.643167625312515,-0.22426243479009222,-0.25813938397567804,-0.5196636546543923,-0.6244378034846068,-33.450019988600125,23.381249008221555,-2.174945718183233,8.930068596646073,3.9941486039751255,-0.6856292909445606,-0.04979474843359892,0.02510558613380851,0.20990579331482234,0.9761284575003432,0.07662907501546566,-0.4194864889324896,0.1182583065665946
1.2046914062500007,2.201540117280574,-0.9563659973660183,-0.537894965694568,-0.20573346678583596,-0.3301439506286269,-0.5525685447578683,-33.88125228881828,22.706251144409283,-1.9687501192093908,8.962804258675034,3.922947769572824,-0.6695710047087431,-0.05141889208857371,0.024103203898774156,0.20601331963055555,0.9768989377536371,0.07456768805513785,-0.4115503522663549,0.12074448446087982
1.2146914062500007,1.6046364003952824,-1.2041640166016148,-0.9090242593888455,-0.06737443014337541,0.019057830223053684,-0.39285000944984927,-32.756279753968066,24.24371399016499,-3.487463112781013,8.985932285803884,3.867151339162179,-0.6842086109727932,-0.052240233226993504,0.024837877770525818,0.20304447061261674,0.9774589067715616,0.07599502066265205,-0.4053500632171713,0.1224114773815069
1.2246914062500007,0.8906806397708869,-1.290587865660003,-1.2932368182097516,0.15118456493812715,0.46788703206487325,-0.17578865569363594,-33.82500076293948,23.85000038146955,-0.45000001788146704,8.995769687872478,3.8346689245660257,-0.7357882317795292,-0.051770758759510635,0.027702970947856672,0.2014315063152299,0.9777404102084541,0.08161009446382853,-0.40174787997353256,0.12242519994553668
1.2346914062500007,0.3218376281234386,-1.2259319582773442,-1.5755845718428825,0.4265158598488185,0.8898230083877956,0.054970432028765254,-34.293739319127084,21.168816221536883,-1.5562230879683523,8.991309644519081,3.8283336256053175,-0.8184165366975884,-0.049702736855812044,0.032445800455664246,0.2012844944771416,0.9777311734316841,0.09077275898661415,-0.40104580496694786,0.12004398720914086
1.2446914062500007,-0.024332264298100648,-1.1247200752585491,-1.6047455462958904,0.7112826527536613,1.1458737805837864,0.25200480518775337,-33.43125152587883,23.418750762939403,-1.8937500715255784,8.974961280472609,3.8451334688132737,-0.9134414512237867,-0.04602283014050864,0.038118496562740266,0.2023553857530817,0.9774845202525583,0.10142842219467114,-0.4029073746613462,0.11482844836284951
1.2546914062500008,-0.1537024007983687,-0.921059168602387,-1.501941245030993,0.9521998691627882,1.1882416457696428,0.39624341208921376,-32.30627899102859,22.650020293712558,-1.9687482881981466,8.950351905444606,3.8804836758830605,-1.0012182083738834,-0.04107855667577279,0.043657191985201266,0.2043270014247592,0.9770623503954228,0.11140222796345715,-0.40682949279972064,0.10703934245529975
1.2646914062500008,-0.2583235591904664,-0.7215299980199736,-1.3800292121280597,1.1305203874879783,1.0448181576778524,0.4858746496946409,-33.000000000000014,22.08750152587881,-0.6375000476836784,8.921614644460734,3.928869877173889,-1.0669723264002322,-0.03534932141017941,0.04822084847603841,0.20687277212206162,0.9765361043492301,0.11903052700917718,-0.41220850442466994,0.09728125302336556
1.2746914062500008,-0.255994483420802,-0.5929351359003202,-1.1308305354316308,1.2341885973898548,0.770566139909034,0.5185362818867967,-33.24374557505922,20.700034636642688,-0.07501373555616475,8.893458340578686,3.9831808253271554,-1.1002775444450645,-0.029265274019050932,0.05119454018708572,0.2096126469510368,0.9760020303302555,0.12309311268938443,-0.41826114459087776,0.08610805189837303
1.2846914062500008,-0.12581569153616629,-0.5392428238564105,-0.6788318592413431,1.2599475337774164,0.4029574979038712,0.5133784811732951,-32.92500305175796,21.881250381469687,0.3375000059605361,8.869673931834418,4.037677751167291,-1.0936561026100724,-0.023200492444443093,0.05211235070172558,0.2122641856192564,0.9755437647862188,0.12268335734307463,-0.42435081712485856,0.07401409330816927
1.2946914062500008,-0.06370370525805302,-0.6223291675958825,-0.023520920777090115,1.2080239797678896,0.005447158224617554,0.4890709286245845,-34.61246185403329,21.431262511910838,1.1437303881667005,8.852156980028877,4.088460789228192,-1.0457810118419104,-0.01747738960201673,0.05082972826069197,0.21466525767465294,0.9752055656327273,0.11759213507332221,-0.43004049625571716,0.06154756016220786
1.3046914062500008,-0.14300911632764374,-0.8011534856194403,0.6507049981669166,1.0947094905177353,-0.31956010794605993,0.46481581787509313,-35.15624999999983,21.862501144409062,2.5875000953674436,8.839933956881394,4.13425773047533,-0.9659247764687188,-0.012323385309455806,0.047773604390065554,0.2168065340841849,0.9749650905906521,0.10883455679996347,-0.4351842625459521,0.04936091492746674
1.3146914062500008,-0.2067940486003562,-0.9329549785542411,1.1068730608880515,0.9392038756936636,-0.5145842619710005,0.447008936792712,-33.22504943726943,20.531282500455063,2.7187467957348654,8.83054277558834,4.175407832609005,-0.8699750293397285,-0.007911988013447818,0.04372977632348538,0.2187543196233152,0.9747656272333979,0.09819987056931836,-0.43981653942971877,0.03819749126254976
1.3246914062500008,-0.27356515496880074,-0.9807018790268549,1.2668623553033953,0.7800254626537969,-0.6000913157802059,0.4260821483131529,-32.925003051757834,21.825000762939517,2.850000143051018,8.82214048232825,4.212423215940739,-0.7711857534232092,-0.004284320218015463,0.039376483816983755,0.22055282360114453,0.9745688912968111,0.08719126385998209,-0.44399213302904905,0.028482296937429263
1.3346914062500008,-0.4796288424448494,-0.9965231611645993,1.2017868464571348,0.644484437430772,-0.5781076272687546,0.4013540920296924,-33.18749359153958,22.556233673512985,1.387535752380631,8.813379374457709,4.246242353323699,-0.6807082443637889,-0.0013191755946606806,0.035319628139494755,0.22224671429867338,0.9743484142438942,0.0770811944305311,-0.4478143781090222,0.02026760547929683
1.3446914062500008,-0.7950058357791386,-1.0127738866110945,1.0550675972120955,0.5409678294010976,-0.4412889038114687,0.3733621003390957,-32.40000152587906,20.75625038146991,0.9187500476837225,8.80354885133249,4.277542067972236,-0.6083063254902976,0.001225110769897133,0.03212173891265729,0.22385506718217316,0.9740913827033334,0.06898706435421909,-0.4513581861243609,0.01332798655171659
1.3546914062500008,-1.1024515354257496,-1.042291643645391,0.8272305272890852,0.4705867658546734,-0.2280427995748696,0.33199440587834894,-34.18120803939191,22.837450715324053,0.993748204753099,8.793149349357272,4.305449663211205,-0.5601564874735256,0.003559284113419215,0.030151776109890546,0.22530998834031687,0.9738135099218442,0.06361713125887039,-0.4545230596304251,0.007405825621759566
1.3646914062500008,-1.3263691731084888,-1.029060087699769,0.5037384575087767,0.43387970956968863,-0.0017311979653150122,0.27617183992930805,-34.050003051757805,20.793750762939457,2.193750143051061,8.783008791636131,4.32906531718045,-0.5368945697632119,0.005823512861228723,0.029928968404442466,0.22639915628483825,0.9735541084807915,0.06203104043046603,-0.45690486589506857,0.0024614400778347418
1.3746914062500009,-1.444465237200228,-1.0273091880476266,0.22974460469379104,0.4182455424071281,0.17946591371452345,0.20540818845003206,-33.956255340520286,20.849999008221555,1.218773803133217,8.77560428791509,4.343830850318596,-0.5385474775714079,0.008082511391466997,0.029869544429316774,0.2274531540768165,0.9732967377954882,0.06079826465135294,-0.4592118053736259,-0.0023941973959563335
1.3846914062500009,-1.5530703933565304,-1.0271041066958222,-0.03858024768109691,0.41607468598890934,0.2883769489961071,0.12502511183277215,-35.60625076293933,20.118751525878967,2.137500047683634,8.768462772030224,4.357774709083419,-0.5424023735755626,0.010350312149142669,0.030818973710295003,0.22801008695217675,0.9731156118136629,0.06172588673114879,-0.460502915782609,-0.006798298341902161
1.3946914062500009,-1.6200889642163507,-1.0338658837159138,-0.20882881461805047,0.4267517171212211,0.3380497842662428,0.048263539938898634,-34.27503402628741,20.84998252915037,1.2187724298734046,8.765148086372317,4.362710917745291,-0.5561506536513702,0.012659057662383864,0.032111360580794106,0.22818975250811308,0.9730043661893173,0.06336530786615281,-0.4610321127200677,-0.011143316822662926
1.4046914062500009,-1.656764914850821,-1.0082531262452452,-0.28077416936315863,0.44929553874293837,0.3588589142657146,-0.012393284913388203,-34.70625305175767,18.84375000000038,1.0125000476838772,8.764197886048498,4.362578137013832,-0.5719537803378398,0.015077131819638507,0.03350706421720012,0.2280952472138339,0.9729449656732353,0.0651678301668259,-0.4610169571960231,-0.015691612993449656
1.414691406250001,-1.6375106352437667,-0.9686670095194538,-0.30051073070244483,0.47525084877830187,0.3721352387532878,-0.049521188217280146,-33.11254196071986,23.118647158272857,2.8312057887393847,8.76459453721974,4.3596475860850035,-0.5879727145790307,0.017634691159844992,0.034942535898922586,0.2278352211388085,0.9729123748349272,0.0669846025120015,-0.4606833753716062,-0.020533693147964042
1.424691406250001,-1.625115492854236,-0.9085920980869178,-0.34881164476726306,0.49598892257082744,0.38791186912978165,-0.05713234165216795,-34.725002288818416,19.85625076293947,1.1250000000001632,8.764923781867768,4.3566633970293065,-0.604939550599772,0.020291804480924547,0.03644984583850815,0.2275620509468346,0.9728692396649122,0.06890892604601438,-0.4603436877861438,-0.025556252334960672
1.434691406250001,-1.6262281692555862,-0.8822344763734048,-0.40947941099900265,0.5093530185521936,0.40492073666125505,-0.04070148350358536,-35.39998504680772,20.043746185414506,2.962455235620623,8.764218716922858,4.355479224171615,-0.623408659883052,0.023003494530760678,0.038050832133368725,0.227378934633117,0.9727903639067841,0.07101150908098183,-0.46020887173298486,-0.030643730739344725
1.444691406250001,-1.6491558169742082,-0.8815256269690569,-0.4831911119522091,0.5191916074320877,0.4160543626738417,-0.010639234987998524,-34.74375152587872,20.212501525878928,3.39375019073494,8.761954660250156,4.357164199083193,-0.6431418472377775,0.025736954310864354,0.039728378784816484,0.22734580897065593,0.9726626017190703,0.07327026095361039,-0.46040066329600815,-0.035729788914299516
1.454691406250001,-1.6828623862795975,-0.8685747719053782,-0.5777390049188826,0.5312908002838652,0.41628692552537766,0.031276657802261035,-32.643804319999965,20.512493438918163,4.256229324850314,8.757593218585107,4.362911969732581,-0.6632549078795521,0.02847905897788702,0.04143716639558102,0.22752970322566834,0.9724718600727468,0.07559059363056231,-0.4610550303748146,-0.04080462191105866
1.464691406250001,-1.6774253238314203,-0.8411039529258472,-0.7105618883117754,0.5530504667994721,0.40378076698253795,0.07798639169488122,-32.90625000000007,18.281250000000203,1.931250095367502,8.751000599873283,4.3731605825952675,-0.6825000234188967,0.031245950518994266,0.043118699666587684,0.22795555933606776,0.9722140102627367,0.07783359754994741,-0.46222229465034026,-0.045931568689862146
1.474691406250001,-1.6028032628707347,-0.8333139928989585,-0.8007433424612981,0.588982430968977,0.3654221779747426,0.1314786199308841,-33.6937330631577,20.549945756329382,2.718730774397551,8.742288236550117,4.38819522305867,-0.6974931996973405,0.034096609362302084,0.044612363895639134,0.22864150241603445,0.971889726883439,0.07961527102606789,-0.46393589377782574,-0.0513207022875985
1.484691406250001,-1.589506964908085,-0.8588547030960233,-0.7957951561045397,0.6293382984663607,0.3048100450685368,0.1889220630844584,-32.47500228881842,22.462501525878643,5.287500381469527,8.731511688615235,4.408376843676729,-0.7051800289848729,0.037065362812984684,0.045769537152404914,0.22961238513598367,0.9714982741562872,0.08058781167267966,-0.4662384176139897,-0.05712439410646754
1.494691406250001,-1.605922724009262,-0.8659485114958279,-0.7254420388756143,0.662880837034699,0.2318037990903674,0.23955220453892392,-33.168733826134414,19.55632247751552,3.0375550733562826,8.718972331534072,4.433292507740159,-0.7041252376849061,0.040132890276436795,0.04651202495327133,0.23085206711786252,0.9710472014398753,0.0805829308804147,-0.46908475921383735,-0.06334777902089668
1.504691406250001,-1.5535611082295082,-0.7868588856925196,-0.6209397939904847,0.6838860546749536,0.1329009764816202,0.27260250637363875,-33.5062522888183,20.437500000000043,3.262500047683932,8.705453227171814,4.461642396912223,-0.6922159409112173,0.04322850838903923,0.046710609992160305,0.23230030861015205,0.9705592887419553,0.07934814506391459,-0.4723284179200711,-0.06991599640397467
1.514691406250001,-1.4368759803427331,-0.6013077209065482,-0.5421973164174223,0.6915372598756827,0.007739509293922295,0.2914955918586788,-32.88751586880902,20.924989242816388,5.699940778272216,8.691452630872105,4.492529906099626,-0.6679295687947733,0.04624988722648274,0.04625935467671211,0.2339213186135117,0.9700521607885896,0.07669802730353237,-0.47586852519319117,-0.0766736235943077
1.524691406250001,-1.367706273641742,-0.4352347209702239,-0.46464634548258427,0.691381804777821,-0.11577371370913991,0.30610249748383256,-33.862503051757734,19.725000381469822,4.74375009536739,8.677059974786186,4.5254490036821595,-0.6318169954776819,0.04915827822756461,0.04517674783183808,0.23569450017180804,0.9695308347702586,0.0726859924075812,-0.4796487124702788,-0.0835387261435965
1.534691406250001,-1.3493475013921126,-0.3540374252318519,-0.3313528842361719,0.6771235339925634,-0.20862654382876217,0.3184869533325574,-32.962523498035885,20.812473450364646,4.275011539179789,8.66232460273883,4.559616165686805,-0.5867461109286217,0.051942283732243036,0.043608098107769035,0.2375761670895128,0.9689981092416028,0.06763164454092485,-0.4835799589187103,-0.09042134414355371
1.544691406250001,-1.283606421338545,-0.2935335382588986,-0.17737017871465147,0.6402573770114369,-0.27292493767091414,0.32465260834990634,-32.86875152587881,19.912500381469847,5.587500095367382,8.64743454737539,4.593988297201949,-0.5360696538897978,0.05453644848895546,0.041709325513767215,0.23950694331807532,0.9684637152002278,0.06191203768621722,-0.4875430066030827,-0.09710318983264271
1.554691406250001,-1.2095677039928794,-0.20123353786286974,-0.02402318189413885,0.5824165076887535,-0.30629643187779476,0.3182625120982229,-31.96877387945905,20.999973450364646,5.137511272157501,8.632622061273635,4.627559108583813,-0.4834943615553085,0.056876601749282704,0.03965426695156936,0.2414249813955379,0.9679390455910465,0.0559488932887058,-0.4914216911157862,-0.10335241915907954
1.564691406250001,-1.1663835692457012,-0.08749918655706602,0.08597488827976749,0.5088198737304899,-0.30195907475793277,0.2964626470085015,-33.01875305175797,19.031250000000217,5.36250019073473,8.618237748079764,4.659220196623289,-0.4334820353788708,0.058914272452733805,0.03765905447908212,0.24325648117215998,0.9674382533302553,0.050255462089241074,-0.49508711831931973,-0.10894120192811428
1.574691406250001,-1.110261898580894,-0.013664317999932202,0.1839154767672762,0.42483723188550393,-0.2662913388164503,0.25913869698561887,-34.40621612638993,20.981203156661422,4.162529677624704,8.605080261896175,4.687347717524646,-0.38941507297812056,0.06063537814802111,0.03588903391409648,0.24489747042928126,0.9669851405763483,0.04522293278096311,-0.4983496124834225,-0.11373813934605091
1.584691406250001,-1.0633389931767026,0.0289321212185986,0.26831943199353375,0.33943919230332864,-0.21142095180870732,0.2001101590369616,-34.42500305175764,19.16250038146972,3.0000000000001705,8.594273154120566,4.709992588647394,-0.3532177975930675,0.06205484173014116,0.03443863632106682,0.24622728491076318,0.9666101228640253,0.04107589838922755,-0.5009803093777803,-0.1177098582143067
1.594691406250001,-0.9744458169836195,0.09993469437345431,0.26587263106080106,0.25709957600992855,-0.15072238810224092,0.12223000478473463,-32.906287078026544,19.106252136187624,4.537462845755882,8.58674216363816,4.725664122524342,-0.3260506327392182,0.06316350557826231,0.03335794068589162,0.24715414817844544,0.9663396633976191,0.0379530788516534,-0.5028031671615598,-0.12079294528232287
1.604691406250001,-0.803468202562493,0.2114804132244453,0.18802942643168902,0.18263338190778933,-0.09088470892886617,0.030792407666303256,-35.40000152587875,18.356250762939656,4.893750190734868,8.583221841203333,4.733257777540859,-0.30813752882315343,0.06397201053071146,0.032654749560392306,0.24761084595132887,0.9661935931418347,0.03588454092605397,-0.5036870589803535,-0.1229934653524254
1.614691406250001,-0.48783032394675613,0.28795452662017207,0.10773713196185522,0.11463980415233574,-0.05339973397501673,-0.07039455145738639,-34.012534636642656,20.17495674240792,4.931249179864771,8.584711646888973,4.731251305868806,-0.2972696324634444,0.06449028324886263,0.03220757462605278,0.24751603349667273,0.9661984521684386,0.034613963476402415,-0.5034534820878453,-0.12439218289444637
1.624691406250001,-0.17757533542334397,0.2947053774269678,0.03415296245868345,0.04786586670550398,-0.044137566754800024,-0.17080888846012177,-35.34374999999974,20.13750076293936,3.956250190734805,8.591499290846313,4.719307928208804,-0.29092204091680557,0.06469400244795007,0.0318753526226912,0.246858977813694,0.9663639613575274,0.03384869901614412,-0.502063612586692,-0.12501110349447803
1.634691406250001,0.15823556699003552,0.23782990455906972,-0.02277490767261154,-0.016273691630956794,-0.055421111733233025,-0.2649372342327748,-32.98130843973511,19.293771361801696,3.4312629124396006,8.60357841531288,4.697489806425553,-0.28704698715998656,0.064578613961695,0.031550018221142735,0.24565043406014284,0.9666902669487528,0.03335131943546444,-0.49952732308362685,-0.12490110522340701
1.644691406250001,0.5397039795043632,0.20074304643990967,-0.11285485041563431,-0.07302705985673115,-0.07396905463044365,-0.34426959869118773,-35.643753051757606,20.175001144409162,4.2375001907347505,8.620195153135532,4.667058893957158,-0.284894453045012,0.06415654336745728,0.031202311460002973,0.24396462469500133,0.9671564555396901,0.03303763661042593,-0.49599572958687566,-0.12411019134836444
1.654691406250001,0.9211845849612672,0.20460436163656606,-0.22758874219458897,-0.1123212516850566,-0.0821690097548597,-0.40389287636987736,-33.8062963856606,20.025005187889544,3.225024861687003,8.640147961168987,4.630028489945661,-0.284682368392312,0.0635112074694581,0.030875457408759636,0.24191261277590737,0.9677247751852394,0.03293687272418896,-0.49170722390238264,-0.12280532394877264
1.6646914062500011,1.2093555020427322,0.2917735318930388,-0.3834443681112917,-0.12711491790314516,-0.05442349538710069,-0.4368748146787522,-33.7125015258789,19.425001144409396,4.575000286102222,8.661549727160896,4.589617475841008,-0.28867290989410693,0.06278065709765188,0.03073780884645652,0.23966436113324047,0.9683360408051317,0.03331574076206359,-0.4870384849734863,-0.12120786476997003
1.6746914062500011,1.2523315594807158,0.45698402652536413,-0.4507261140225456,-0.11253862681236561,0.04873338557096531,-0.43465493945168926,-33.63750259396806,21.374952393768535,3.9187660690268364,8.681847491237386,4.550282736200616,-0.30134804794219366,0.06221656759128453,0.031104817770941748,0.237447679836071,0.968906695893161,0.03469616905668828,-0.4825051465817187,-0.11971269427364499
1.6846914062500011,1.2370837867955837,0.5137666673723597,-0.2929034209539789,-0.07961835829978786,0.19936636210253303,-0.4097881107215978,-34.31249999999992,20.812500000000018,5.550000190734741,8.700162445036803,4.513579023354994,-0.3242602873210917,0.06204384362626545,0.032116689183835416,0.23533729474337692,0.969399518626994,0.03725331833565923,-0.4782846915100998,-0.1187467477639625
1.6946914062500011,1.3549580811071358,0.3998796110458612,0.05599596419025449,-0.05445956633947664,0.27948233617614304,-0.3931687749690845,-33.60001968335727,20.981246643148378,4.443777388862233,8.717880210532876,4.477307977645343,-0.3502048755452465,0.06221787325907865,0.033372840602129264,0.23323383175157014,0.9698541862914972,0.04014926013825884,-0.47412301607018353,-0.11842655412183326
1.7046914062500012,1.5546317335349,0.26933131300586843,0.39649265514961013,-0.06813958775695768,0.2166854925103452,-0.42229814748953926,-33.33750152587888,20.231250762939425,5.624999999999904,8.73769870755816,4.43701935979235,-0.3686016741589343,0.06238748042931582,0.0342148563609225,0.23093439042655714,0.9703640945216366,0.04216020063112183,-0.46951078863375656,-0.11832432779741534
1.7146914062500012,1.6665639727465364,0.31029946871096337,0.6236793091811117,-0.12356109319670144,0.06261060908236146,-0.49533508726001907,-33.075007171493,19.98750709518229,4.7625213427100475,8.76115207234228,4.390054149033865,-0.3742082430892321,0.062202660450458046,0.03427579738399392,0.22832159661136772,0.9709918617700364,0.04268627632045984,-0.4641477693693161,-0.11785748400439458
1.7246914062500012,1.839678440351726,0.33403559760007334,0.8614781365157641,-0.20903447071401252,-0.10611289157511371,-0.5952263112775127,-32.456253051758154,20.700000762939364,4.837500095367238,8.789525542960424,4.333597348771349,-0.36682966498565556,0.06120611979710182,0.03311672936292705,0.22493623546644043,0.9718776950563315,0.04105731687334082,-0.4570271991271791,-0.11623361671337658
1.7346914062500012,2.108595776307619,0.18977307483193637,1.0292655194176459,-0.3126515369898655,-0.27039855014422565,-0.7132584566872576,-35.54992752259632,19.912519607083784,3.093792809397017,8.823952310757603,4.2646318855073595,-0.34803057121971104,0.06020471265610484,0.03195301626853836,0.2215457987930636,0.9727649915252493,0.03942120760944717,-0.44989558736270135,-0.11460136970329146
1.7446914062500012,2.395167852010021,-0.05702695507636246,0.9670018324532047,-0.420771869148527,-0.39661549792055956,-0.8352858248598407,-33.82500076293914,21.03750038146978,3.3375000953674197,8.864329438700066,4.182074318251434,-0.32285646969626375,0.058236542374947894,0.029885690276880653,0.217144309311319,0.9739422268546777,0.03640598220661345,-0.44056774391696524,-0.11129424348117899
1.7546914062500012,2.479374544489271,-0.14940170449658602,0.7108446272117142,-0.49117652024747166,-0.40463920040349194,-0.9227459037137932,-30.993820646486853,21.50623893765738,3.2250028895649465,8.907655248546972,4.090613079248432,-0.3013837042227911,0.055837209506530504,0.027910479929772164,0.21226561806832803,0.9752159846988223,0.033821382325757154,-0.4302815423030267,-0.10699621401877588
1.7646914062500012,2.4416982024902056,-0.24255225404337913,0.48931800850815027,-0.4994246036402156,-0.25267144330446145,-0.9449370491973224,-32.70000076293943,20.41875076293959,3.262500047683853,8.950481917705469,3.9965186219159734,-0.2949202072706192,0.05348112694379289,0.026748243234985973,0.20721164992542648,0.976466708956095,0.03293819968656684,-0.4197494989975514,-0.10241408615524569
1.7746914062500012,2.2836355320270143,-0.46315171777713265,0.33223951506385857,-0.4408749110334081,0.01046736813381793,-0.9051888388611259,-32.493756561137715,21.67497047498278,4.499969788336569,8.990271809605465,3.9049848377067,-0.31040765243669816,0.051622185306387035,0.026868277978379443,0.20224110516451504,0.9776049510618664,0.03451309521265075,-0.4095514197559263,-0.09834325631836634
1.7846914062500012,1.8655147312769604,-0.7019446806535844,0.17590612287744228,-0.32364706404290566,0.3372652806643183,-0.8141723654137956,-32.98125076293918,24.056251525878707,5.306250095367262,9.02462340945303,3.821349709319369,-0.35164914744149206,0.050596506868943576,0.02854049302839845,0.1976289852323379,0.9785539040345028,0.038945389855412765,-0.40027262065006536,-0.0954181982087288
1.7946914062500012,1.2413387535741398,-0.8151424158300918,-0.04340234878311233,-0.15948200585646027,0.7245358218384146,-0.6791302308305798,-30.975049360995882,22.593785704731776,4.031281127171912,9.050968610939274,3.751130135133579,-0.42324076573738956,0.05065374851213324,0.03205386042897322,0.19365141876348216,0.9792369748891533,0.04672737897220499,-0.3925101638857114,-0.09407236028151904
1.8046914062500012,0.685794067443453,-0.6866778506812757,-0.314164702766054,0.042762290712747536,1.1166330759526333,-0.5204999170881549,-31.575000762939347,21.76875114440928,4.3687500953674965,9.067408450903205,3.6981844467706715,-0.5249352496760594,0.05195286323832923,0.037424560812804875,0.1904969984489489,0.9795968432236452,0.05782753006227587,-0.38667389748073483,-0.0946465309745876
1.8146914062500012,0.3132250101890458,-0.514231941057315,-0.5411845130913163,0.26207870544778356,1.41882867706849,-0.3607489173392356,-30.768770827757102,22.518732834309425,4.856238384532798,9.073746374432616,3.662982304161518,-0.6478078848719371,0.054498715617916874,0.0441851582602731,0.18818602668345324,0.979623325504442,0.07127242043753527,-0.3828010495140192,-0.09733417197242482
1.8246914062500013,0.12770637986687425,-0.44016497590548614,-0.6200963357622357,0.47510913499181784,1.5692553205446667,-0.21879595711295416,-31.125001907348775,20.962501525879077,3.581250190735031,9.071469372604566,3.64339678023984,-0.7772379102228105,0.058164875227257364,0.0515468322371395,0.1866154766133383,0.9793531124161998,0.08547055390895887,-0.380648961171914,-0.10216693931453819
1.8346914062500013,0.18760864121216533,-0.4139609534795959,-0.5812171769612793,0.6668467630953542,1.5387872535263134,-0.09939266559309233,-32.17497741759021,22.27496948320433,4.837469425952671,9.06308494882619,3.6368710902634964,-0.8965457740209098,0.06272150744471287,0.05859634964992267,0.1856791840442033,0.9788533715173435,0.09860205829372701,-0.37993232757203244,-0.10900359819708041
1.8446914062500013,0.4538460139863199,-0.3796952513400532,-0.35194002977153227,0.8062649348144795,1.3128434332625047,-0.004609520062034264,-29.88750076293949,23.268751144409332,4.087500095367616,9.052042406450346,3.6406000249229513,-0.9883625716117681,0.06780004431755211,0.0643564024221421,0.18528923725025337,0.9782269281195738,0.10875596069453322,-0.3803417699803901,-0.11744177488514396
1.8546914062500013,0.7955441748130286,-0.34199577835328626,-0.03853944309196507,0.881310476643063,0.9393594245668209,0.06595918425423056,-30.149995117325364,24.412472458586226,5.474966507778195,9.041714318497641,3.6515839405602764,-1.0410199185709939,0.0729826335912007,0.06813271129346811,0.18536113482235336,0.9775846722128515,0.11463053003371135,-0.3815483626025738,-0.12687458896988968
1.8646914062500013,1.1051905999862115,-0.37847148551348075,0.4441342915949658,0.8884510201913148,0.48591456941477706,0.12398161037855891,-29.343751907348604,21.206251144409464,6.675000190734856,9.034428882176389,3.6673670191799523,-1.048733561601561,0.07791777302956476,0.06954929034338254,0.18583639671004706,0.9770137001569624,0.11556455959443769,-0.38328312017652905,-0.13671903142540978
1.8746914062500013,1.2906761814615675,-0.5191124778263783,1.103274589418778,0.8304975914387778,0.03285750271449939,0.17710049633343652,-29.1000063322894,23.343697816243637,6.6187514686272415,9.030848868000128,3.68616777960746,-1.012971866578992,0.08235138742534429,0.06862848038986262,0.18666709811720864,0.9765567069292209,0.11170078805932715,-0.38535116349726456,-0.14644472121562255
1.8846914062500013,1.3024097130500782,-0.6967900707633304,1.7460578418231951,0.7266405258762222,-0.3435752224681185,0.22307883600022357,-29.325000762939542,22.743751525878817,7.818750381469607,9.030013864563289,3.706778459741289,-0.9427001251973413,0.08574748566769423,0.06573106654929821,0.18781934250780313,0.9762426149910187,0.1040191110464687,-0.3876202104061419,-0.15478525624646836
1.8946914062500013,1.1775667974974655,-0.7885020661874009,2.1582282359611265,0.6054734572438738,-0.5802900707050446,0.2575972298053129,-29.999985428230918,22.106266326542872,6.918772258224329,9.029922287810242,3.728687588255947,-0.8528687644874768,0.08824736029413016,0.061660083865182694,0.1892069229565229,0.9760174511707742,0.09416936012767808,-0.3900345520407229,-0.16172742777651067
1.9046914062500013,0.9201253666810904,-0.7923740367378653,2.2861182338131205,0.49817285356728175,-0.654396060405575,0.27628539285537107,-29.737501144409457,21.71250152587916,5.887500286102305,9.028821056501165,3.7514516660932355,-0.7596359246481263,0.09055142542075613,0.05738841148615941,0.1906936248333658,0.9757776425056128,0.08393643952144467,-0.3925456393700492,-0.16837027817906272
1.9146914062500013,0.48731451099663864,-0.7753005900636107,2.2608335672719098,0.4252658583635715,-0.5595004476370761,0.28397323881024383,-31.818699570961535,23.643703995911626,5.962498264362113,9.025491993108135,3.775037575384292,-0.6780761301635574,0.09261252145607841,0.05368904065201484,0.19221104080915657,0.9754971386148801,0.0749877653110604,-0.39515010146319585,-0.17429231456486122
1.9246914062500013,0.06991130158382912,-0.7544588555987861,2.117500311507202,0.38879043298440086,-0.331819725163008,0.28582872424566447,-31.650001525878594,22.48125076293921,5.700000286102474,9.019515878120107,3.799313003505637,-0.619557304672575,0.09463240460575639,0.051189409711463595,0.19368053913272565,0.9751470849798017,0.06858282883586289,-0.39783374465421945,-0.17965257296888867
1.9346914062500014,-0.35708682125160635,-0.752322438209217,1.877161973168738,0.3789078137695868,-0.02212261521360064,0.29241350997351356,-29.32505752426732,20.662544783470945,7.049967232557632,9.010600065564688,3.824926508848117,-0.5910663840458936,0.09659524338888105,0.050251666999430435,0.19509458118910133,0.9747214069388512,0.06550295030122884,-0.4006685668797119,-0.18425025012099178
1.9446914062500014,-0.7621835897248134,-0.7533873713235932,1.584790702558319,0.38310853726775435,0.31324206513218555,0.3015930554463905,-30.843751907348704,20.7000007629396,5.51250028610259,8.998713952047332,3.8522491635864524,-0.5946383896725712,0.09877880137021332,0.05103952775856886,0.19643792241595853,0.9741914991675255,0.06598471140166973,-0.40369631905515035,-0.18859294182321018
1.9546914062500014,-1.186940882913692,-0.752851465758663,1.2360211457438175,0.395403858176572,0.6200230504359447,0.3023760322665819,-31.349988022189645,21.787473831834394,7.724946366673121,8.984209863322068,3.88074027974079,-0.6276734969521892,0.10130582848426097,0.053441931074409275,0.197676305841906,0.973552214894219,0.06975123350637774,-0.4068577045368132,-0.19297503391081827
1.9646914062500014,-1.6280801812495969,-0.6860568071918834,0.8788833277403151,0.4171013173132549,0.8768749844180025,0.2802394232859981,-29.962501525878857,23.32500076293936,7.743750095367477,8.96776768975482,3.908906792305899,-0.6852786772287476,0.103947882564664,0.057152080322202745,0.19875472131166025,0.9728427845280341,0.07626813253558479,-0.4099872670769564,-0.19702635700766283
1.9746914062500014,-1.9211965401578475,-0.5865656770160141,0.6204932079547488,0.4520889356833089,1.0645204357276363,0.2291488334286976,-29.606259460255462,22.631267318321314,8.081241951187645,8.950670334371726,3.9341951028951048,-0.7599509889823555,0.10714867401507805,0.061856239404317025,0.1995369392327362,0.9720471419856486,0.08470181590765093,-0.41280067071540405,-0.20182763700216158
1.9846914062500014,-2.0145722733380524,-0.4481770312316686,0.41408741532796645,0.49116062274895955,1.1630697819766234,0.15661567046701702,-31.03125190734849,20.887500762939474,7.500000476837327,8.934299650361838,3.9543587392202206,-0.8430912954658322,0.11045639884354792,0.06699981180354038,0.19996272943138993,0.9712466366952237,0.09408779599677784,-0.415046441412491,-0.20665467394384848
1.9946914062500014,-2.0056637285517596,-0.2738273483274033,0.2278893522267642,0.5314761835522824,1.1483853118265246,0.07064470749611505,-29.925001144409034,21.046875953674338,8.765625238418748,8.92073368625576,3.9659632842436565,-0.9247215014726806,0.11419882353160443,0.07210577426657801,0.19986015140821353,0.9704509306111245,0.10329609509411407,-0.41634027050027383,-0.2124330217917469
2.0046914062500014,-1.9719401185886782,-0.1480563239680064,0.15558133662775944,0.5713438756345459,1.1288898668357916,-0.014508431638953831,-28.81875038146982,21.206251144409052,10.03124999999984,8.90747723008089,3.976914472945273,-1.0055039619264539,0.11796472237898316,0.07716798207183208,0.19972165094903027,0.9696587752149178,0.11240736967824282,-0.41756126590318393,-0.2182825521143464
2.014691406250001,-1.8936338099064927,-0.11820326172506457,0.18728717071596734,0.6047537292456616,1.046925434405174,-0.08777634465000889,-29.512483826087866,20.250023345405125,8.831279486889814,8.898365260028342,3.979219759952235,-1.0747290848197697,0.12202146547276968,0.08162900527669943,0.19911112112724622,0.9689169434279508,0.12019600999916459,-0.4178184205100648,-0.22504181932209152
2.0246914062500014,-1.776926195171859,-0.12688955411741137,0.2849140578955906,0.6279909264604587,0.9495074346843445,-0.1409424822307524,-31.38750076293933,20.343750000000153,9.131250381469782,8.891982971981477,3.9771391082464147,-1.1336682582737836,0.12598980199079293,0.08550039341323033,0.19830236366523263,0.9682408644667712,0.1268091141509431,-0.4175862871814521,-0.2318879576150056
2.0346914062500012,-1.6982562800361263,-0.11185721178004925,0.3539666881869063,0.6420463265018493,0.8650320378349667,-0.17094175452492444,-30.450023650564148,21.487473221479114,9.524990959397561,8.88735202445614,3.9728029079053973,-1.1840827569543537,0.1299712737591473,0.08890858778191366,0.19739726387709808,0.9675924838105714,0.1324522203961124,-0.417102583292496,-0.2389806238101011
2.0446914062500015,-1.677152862258449,-0.07288205027229004,0.36226989067864085,0.659175094995387,0.8199867010116577,-0.1829145420488577,-29.400001525878825,22.200000762939286,11.40000057220446,8.883263454153413,3.9680593453883097,-1.2297832962699677,0.13371112303407548,0.09201437994014981,0.19649981484014037,0.9669749413844726,0.1375638124153144,-0.4165735600582944,-0.2456946926990569
2.0546914062500012,-1.6677289023099207,0.007767122304260475,0.31113812398065904,0.6899159053574894,0.8219068959356476,-0.18558446728051442,-28.800015792498296,20.943781050896128,10.425023993873857,8.878677467249837,3.964126408717225,-1.2747591642812153,0.13767625262155414,0.09513132391443231,0.19560830328347903,0.9662972309444259,0.1426007390017907,-0.4161350606265804,-0.25289624981509495
2.0646914062500015,-1.590088182170705,0.09956235978524484,0.2482358649130832,0.7361980509870121,0.8434396653708044,-0.1885837907125132,-29.6625003814696,19.462501525878956,11.137500762939474,8.87339440530262,3.9611015084183374,-1.3201356860717002,0.14192419516665675,0.09833068177045678,0.1947124805859454,0.9655428682874273,0.14769124853805385,-0.4157978778459541,-0.26067874683182213
2.0746914062500013,-1.4392124241710462,0.2276955977890654,0.21521976815409347,0.7917327528973793,0.8530583598298829,-0.19494321366940992,-28.70627448976774,19.874989929482386,11.3062464524368,8.867716554421746,3.958882273457301,-1.3642229630110578,0.14650593239566825,0.10153352845199798,0.19381014457538154,0.9647080505666886,0.15264476828214435,-0.4155505063124942,-0.26918803157173005
2.0846914062500015,-1.245715387908086,0.35741453709285814,0.16251435999022731,0.8466701601375435,0.831889218127552,-0.20007046722699903,-28.293750762939265,21.506250381469698,13.575000762939409,8.862065543114426,3.9575023560554796,-1.4043762322179028,0.1515299634906228,0.10462375049664807,0.19290824651146235,0.9637820495681704,0.15716360458042525,-0.41539666859755103,-0.2787099879068002
2.0946914062500013,-1.0153072985280935,0.4700460621627849,0.124406905966944,0.8941096349980647,0.7687650918683265,-0.19675855506962167,-26.887535094376492,21.300006179667985,13.256258163271438,8.856860436960664,3.9574325536816186,-1.43704352584078,0.15677343081781195,0.1073759877485081,0.1920825695118825,0.9628052284901549,0.16085032282323924,-0.41538886937765507,-0.2888600484270176
2.1046914062500015,-0.8582153090156952,0.552578649684038,0.14686399427487612,0.9234103544822935,0.6852889767969467,-0.1812392647008092,-28.425001144409055,20.943750381469766,13.650000572204613,8.852053456351275,3.9594790765117347,-1.4608356145985448,0.16188854127808747,0.10965780401648002,0.19143069836172255,0.9618309478800496,0.16355379851469706,-0.4156169883435618,-0.2989406571556676
2.1146914062500013,-0.7696843434155047,0.5538517485947294,0.22145732118294362,0.9304964572485924,0.6120960572028675,-0.15523105783857094,-27.487524032033875,21.22499351518232,13.81874626170194,8.847322390507596,3.9639407561405178,-1.47730576891663,0.16697454593735808,0.11157557485354898,0.19095217940637,0.960835573508743,0.16545135053781035,-0.416114334869763,-0.30911939272400746
2.1246914062500015,-0.7304967143162875,0.5062116495758808,0.29646800958565517,0.9188234602899913,0.5591745943704113,-0.1276828700891133,-27.45000076293952,20.062500000000178,13.706250190734899,8.842420308265542,3.9704866814398025,-1.4890328365167402,0.17192517190447382,0.11324161293201328,0.19062579389215956,0.9598321101548029,0.16683132956885635,-0.41684428844974303,-0.3191189023684082
2.1346914062500013,-0.7068125012425239,0.4494537483809308,0.3303486548655345,0.8990411580762857,0.5210736223023044,-0.11842257647409646,-27.956238785082533,21.393718643954177,13.968744545120776,8.837851739727453,3.977316227405524,-1.497900704955654,0.17649677751490742,0.1146876188074175,0.19037208505346656,0.9588805432959437,0.16789150198137295,-0.41760605078954743,-0.3284012822783394
2.1446914062500015,-0.6658031969171202,0.42879224212196965,0.29645699208347887,0.8846553591265465,0.49687638315323723,-0.13225338901921485,-26.94375038146977,21.300001144409,14.793750762939379,8.834231256691705,3.9825622982793956,-1.5053024921622424,0.1810124793673673,0.11602921649869834,0.19004370647898164,0.9579420703712543,0.168773339413922,-0.4181913626268112,-0.3376208691570912
2.1546914062500013,-0.6062452506192577,0.41377092807697885,0.28619074475430917,0.8804408050430746,0.4899326210858543,-0.1647644285650174,-27.262492981137743,19.950033721128325,14.250014228491983,8.832075930238105,3.984716184893716,-1.5122338910254223,0.18537173848968067,0.11727930282784642,0.18956482016392798,0.9570505684785304,0.16957628123720606,-0.41843173172977094,-0.34655563282856433
2.1646914062500016,-0.47261319717277195,0.4071268985154568,0.31157301155998124,0.8858522171738679,0.49359385514337245,-0.20931545945651991,-26.531251907348487,19.931251525879176,15.787500381469979,8.831796271109438,3.982755266523315,-1.5190230463909447,0.18992577646079364,0.11850974935739475,0.1888357398311981,0.9561495501514771,0.17032826256961517,-0.4182128481853024,-0.35593866392050055
2.1746914062500013,-0.34501934410984136,0.4062555024120614,0.3167644521542116,0.8963073489278286,0.5168180328489161,-0.24982793834874117,-25.68752250621086,21.468712464332754,17.193716050032688,8.83288220040878,3.9771515255352967,-1.5273595487526412,0.19476374334651936,0.11982815663999723,0.1878542340307148,0.9552047764158467,0.17122424696211974,-0.4175876694535739,-0.3659162355383748
2.1846914062500016,-0.23168717966083133,0.4064171171621309,0.3241063057858462,0.9089332177582597,0.5688195714056214,-0.2760135601655021,-25.593751907349027,21.8250007629391,16.38750076293937,8.834277667397517,3.969268882665892,-1.539733449591765,0.19968161162729514,0.12133712580886956,0.18669214418570632,0.9542259222394958,0.17255737626695866,-0.41670848485040884,-0.37599811640363523
2.1946914062500014,-0.10982681817528678,0.38949141538093546,0.3488928581686365,0.9193713452131694,0.6392054334857407,-0.2890094992426301,-27.787446824465196,19.837550047624628,15.918762206751799,8.835184952298732,3.9601971478493367,-1.5577749253474786,0.20487239370284693,0.12317023182573544,0.18536274085329138,0.9531491936911867,0.17452109690034326,-0.4156970450098936,-0.3865477911451257
2.2046914062500016,-0.0023582941296901305,0.4230266136783332,0.32531915954353535,0.9241771336375827,0.7159722092265141,-0.29108581188582433,-25.66875076293955,19.725000381469947,17.006250381469577,8.834841251151545,3.951131404804395,-1.5825355672029895,0.21002109675011613,0.12533421035738698,0.18395358782424703,0.9520187626927917,0.1772445364858358,-0.4146867663723711,-0.3968769092587198
2.2146914062500014,0.11227574487572443,0.5457783986706715,0.1862671914132201,0.9295213001364256,0.7861074295579965,-0.28854611980802947,-26.212488251037954,20.962471314186367,16.16252098033195,8.832816562891614,3.942922354526474,-1.6139869924240113,0.21510689835889732,0.1278344659448047,0.1825075019030611,0.9508282419798166,0.18073216787500632,-0.4137723658847345,-0.4069393128404688
2.2246914062500016,0.28664337705523735,0.6638702843296015,0.05328083013527602,0.9382557932870188,0.8384536168653346,-0.28320625147858053,-25.462501525878686,20.231250762939357,17.90624999999984,8.8292843472763,3.935790301355451,-1.6503039574539726,0.22019356051377703,0.13059201703538006,0.18104236571066099,0.9495682792171994,0.1847802484017555,-0.4129782004779394,-0.41690957486129265
2.2346914062500014,0.4640821821787835,0.7584497439492917,-0.057622792058081074,0.9434736145310927,0.857189006767721,-0.2788464190345345,-24.243781279791005,19.68751327484095,17.00627235358012,8.824852054075986,3.929523628235422,-1.6885037863485395,0.22533046828698894,0.13345919576490603,0.17956951386101594,0.94824312210118,0.1890500738469509,-0.4122806382525884,-0.4269595891904703
2.2446914062500016,0.6444302320434084,0.8416730348252143,-0.18103540527256162,0.9400903807476293,0.8384525602008952,-0.2821950466695419,-26.343751907348455,19.91250038146975,18.71250152587868,8.820459977974041,3.923239606547686,-1.7256641145879528,0.23060939643208975,0.13628961449619975,0.17806125318604876,0.94685513480246,0.19320281863866232,-0.4115813918162259,-0.43735308857937183
2.2546914062500014,0.8845500171799048,0.9064286013434132,-0.34706693686828527,0.9322259854890488,0.7750645810092271,-0.2933360752899338,-25.331275863062476,20.043747558662684,17.45628181383558,8.81728771074428,3.9159227611939387,-1.7582022428547626,0.23557225839395962,0.13879649043170755,0.17657336100892507,0.9455470171730302,0.1968222574965269,-0.4107674324956265,-0.44720640376552834
2.2646914062500016,1.0757259804033714,0.9471619317548878,-0.5443425365845883,0.9287639200289173,0.6706748824916253,-0.3032752180385725,-22.856250762939787,20.11875152587892,19.143751144409233,8.816062765627743,3.9076662230783983,-1.7825615962912464,0.24059209760082417,0.1408671444974395,0.17510511145751714,0.9442491506950751,0.19950488503064737,-0.409849239595749,-0.4573796773321873
2.2746914062500014,1.1255301578858745,0.911329608874221,-0.7795904643397641,0.9522707831810951,0.5634333728302485,-0.30778580280271334,-24.731204987690067,20.212499237116432,19.44374305744845,8.816693985657968,3.8992527256214555,-1.7978060900250319,0.24553543020288882,0.14244038420740415,0.1737355966033698,0.9429927234721782,0.20115163658219745,-0.4089139993852444,-0.4676011266319925
2.2846914062500017,1.0171130255181322,0.7959936535818016,-1.0270456968779305,1.0142458563702426,0.5019464318693259,-0.3064846174307455,-24.262500762939183,19.575000762939318,18.956251144409435,8.818189329145845,3.8917423285673753,-1.806724880358258,0.25071113990539434,0.1437605523286844,0.17245079288330128,0.9416618611793828,0.20214140387381804,-0.40810565302648366,-0.4784477740333284
2.2946914062500015,0.7435780043158866,0.7374303789575092,-1.3096537154727266,1.117677294006191,0.5308080151205737,-0.30076694174578633,-22.74378860381228,18.806270293712526,20.39996627892756,8.818466761104219,3.886774304720916,-1.816037405432068,0.2564504971990813,0.14533733930432624,0.17121772781055816,0.9400831172065756,0.2034051459975468,-0.407682583104929,-0.4904459892041086
2.3046914062500017,0.49149198833444724,0.6772514327575954,-1.5548264658783455,1.2603583431811334,0.6479815544835342,-0.29754952282434977,-24.075000762939155,19.931251525879038,19.81875038146964,8.816054798991452,3.884978484934693,-1.83151895845503,0.262393874855771,0.1470317322702743,0.16996192107763541,0.9384221412228874,0.20483447762105156,-0.4073281733719301,-0.5028513843017651
2.3146914062500015,0.3790181434759054,0.6021035269022272,-1.545400042761549,1.4129729272685885,0.7815031427850067,-0.3068960791222885,-22.387541960663903,20.69998199510583,19.331263045955396,8.811465153004153,3.8852721189703288,-1.8528543922394423,0.2695789201845632,0.1494314193040637,0.1685509944171592,0.9362578246606078,0.20725812868599777,-0.4073607712825065,-0.517743206380726
2.3246914062500017,0.37660585935902874,0.5021377158145046,-1.2824303031293853,1.519159172000715,0.864852030450036,-0.33983692550232303,-23.94375038146959,18.637500762939386,21.37499999999987,8.806844989787441,3.884630989127411,-1.8760186427314967,0.2772113179886567,0.1519794088092064,0.1669639943199385,0.9339000719693198,0.20988115378683742,-0.4072896125107541,-0.5336007507640774
2.3346914062500015,0.4450347759032909,0.4637612516018766,-0.8758466309217051,1.5415500437842447,0.8473442041798188,-0.4042979293327562,-23.175019912242803,18.26250991798933,20.625018310099755,8.80536750267614,3.8789432228179024,-1.8946402490665668,0.2849904676174863,0.15421921008549153,0.16512650733541764,0.9315154087156302,0.21193740619841836,-0.4066580563763949,-0.5499456451366179
2.3446914062500017,0.4443131493125166,0.5408412037691354,-0.5141654084787295,1.4844703843077167,0.6895250998690273,-0.5291762176139047,-21.54375076293941,17.831251144408913,21.281250000000174,8.81173408965426,3.86186178135481,-1.8998822126718349,0.29254143241481473,0.15551165127594024,0.16291643854752233,0.929346798428075,0.2123578055906384,-0.40476268239943475,-0.5661918137495269
2.3546914062500015,0.5220161751802894,0.5989351574224256,-0.23924669623372674,1.3669602667950203,0.3965943076368128,-0.7277820332467428,-21.300007095182277,16.33128776460862,22.256226578330775,8.831363442944578,3.825138789871694,-1.8827926382139366,0.299640324497051,0.15520177919009825,0.16011276595813795,0.9276229087646304,0.21005106036481383,-0.4006931077661934,-0.5820689426200013
2.3646914062500017,0.800526283676557,0.5415159183518382,-0.0898849579090252,1.2121226226139181,0.028388642240154686,-0.96991587997283,-21.393751144409283,19.18125152587855,21.82500076293947,8.867266915392294,3.762831756552009,-1.838803498490587,0.30585642773128835,0.15286850772578617,0.15659497416997972,0.9265810115255616,0.20447602645421492,-0.3938042625070382,-0.5967251310151411
2.3746914062500015,1.3680644050629167,0.28952471554078857,-0.048318906141059145,1.0569047540353858,-0.31561251540534485,-1.1787286670202852,-21.97498619116107,17.19379890326193,21.918748474176986,8.917415939005398,3.6760169408375916,-1.7703459233203747,0.3113237860359944,0.14868533001056375,0.15239482512885563,0.9261402510746456,0.19598491822142464,-0.38423779936156643,-0.6103191109475893
2.3846914062500018,2.0669958223353917,-0.16378639395962624,-0.06136132896661424,0.9341891801036756,-0.5589361068628265,-1.289166232926613,-23.137500762939183,17.118751525879034,20.793750762939812,8.975726848622473,3.572625620183755,-1.6851211482586246,0.31619076002319974,0.1432298193028285,0.14779152083993816,0.9260967002588171,0.18558909947248262,-0.3728918053139735,-0.6229086610723313
2.3946914062500015,2.7215764395164816,-0.5527320644749956,-0.14962310666219414,0.8705354460506125,-0.6806612779155797,-1.2647287985433315,-21.618788603812213,17.831233749823756,22.81870094420979,9.033657338211128,3.4673117036980625,-1.591501696015361,0.320767757124928,0.13711133075860463,0.14329535862382592,0.9261490897613028,0.17412921480895766,-0.36117827531782515,-0.634936585287478
2.4046914062500018,2.711154227594412,-0.7221864648837423,0.20712988385581002,0.9121854729674106,-0.5234947621260668,-1.0860253144721053,-21.643750737511038,17.30000979112658,22.206260477780766,9.079748290088,3.3803298313291883,-1.505102035627196,0.3252353626511384,0.13094884450940378,0.13942398009388832,0.9260480143355037,0.16248192271492362,-0.35050436078722885,-0.6465932439632407
2.4146914062500016,2.7007320156723424,-0.8916408652924814,0.5638828743737984,0.9538354998842069,-0.36632824633656075,-0.907321830400887,-21.668750559490384,16.768755467767846,21.59375562036007,9.12583924196487,3.2933479589603176,-1.418702375239035,0.3298317162386084,0.12526982243877324,0.13572761969525507,0.9257913162787235,0.15167627435190315,-0.34048432646776927,-0.6583716078550004
2.424691406250002,2.7150606397128922,-1.0051481215972715,0.9510241487657622,0.9882231608911437,-0.1453589460969708,-0.6955220161443975,-21.693750381469464,16.23750114440945,20.981250762939702,9.166014580617384,3.2163678281036856,-1.345117958664121,0.33505894118252255,0.12235928474704237,0.1330071401156646,0.9246986672203437,0.14571085391339625,-0.33416293087900967,-0.6706400694114412
2.4346914062500016,2.6990867041658118,-0.8275499801311692,1.1796557912828949,0.9918108714888217,0.2917734230043612,-0.34316843119282664,-20.212537688297914,17.756213303536416,22.387466431502475,9.1754054315938,3.193692443549211,-1.3351143297010166,0.3403599058157625,0.12212916204465274,0.13123634813294732,0.9230449898178699,0.144464194692567,-0.33144760490059016,-0.6823317194853316
2.444691406250002,2.034333437436717,-0.49472291427494325,0.0646727215212608,1.0067621767367751,0.38361704426839094,-0.04173978308162907,-20.62500000000005,16.968749999999986,23.156250000000096,9.16836391331052,3.208975358655558,-1.3466880186879102,0.34533017396862775,0.1235073959337687,0.13070560090918001,0.921088704530207,0.14569841568949168,-0.3321614910002738,-0.6929280711979158
2.4546914062500016,1.2819815470616014,-0.2743570639976608,-0.9277654937803224,1.0405877093046567,0.4089280816384723,0.2027183571225201,-20.906243133712604,16.893752975391212,23.69998748809853,9.160922555843047,3.227891625375104,-1.3520327659986813,0.35016726752354527,0.12509853515321354,0.1314250810352138,0.9189393366647846,0.14652820245366413,-0.3354076465964651,-0.7032915799301764
2.464691406250002,0.1475895860211005,-0.5444634261661723,-1.385754160573715,1.156728589293921,0.14407345207872768,0.19871349687374915,-20.521884765615614,16.265641288761856,23.28751045227974,9.151737397116774,3.262653870596184,-1.3302115006591693,0.35527692736672367,0.12547397983077405,0.13283615068600377,0.9167100330541289,0.1443371051044625,-0.33916563389365934,-0.7147172165715312
2.4746914062500016,-0.8577995318733751,-0.8458203226616765,-1.6781619334151914,1.262690622906871,-0.12661150336558025,0.1769600608869522,-20.137510147085347,15.637516098027007,22.875010070810024,9.144626029102565,3.2950323536891086,-1.2992763232504283,0.36048890885696006,0.12537619392516208,0.13428887225508632,0.9144879924958356,0.14113520753750558,-0.3426667294206814,-0.7265298379661805
2.484691406250002,-1.1613257434260835,-1.214042188382674,-1.367285618208553,1.3178229934537813,-0.4129863931303584,0.08393806782720886,-21.393751144409087,16.275001525878707,23.081251144409258,9.147358693375587,3.3156385667541697,-1.2253009703761544,0.36610382615456527,0.12302373510505842,0.13593148699380295,0.9123311510335697,0.1331578602718774,-0.34489845050721396,-0.7399995230579816
2.4946914062500016,-0.8649377733475806,-1.2989098155009686,-1.5071374177481123,1.34339944368745,-0.6520121917702429,0.01967801840229829,-20.868764342939397,15.150028037377455,23.531239013968104,9.155210056176319,3.328326307783226,-1.1267102436623313,0.37156268306235635,0.11938418508387781,0.13768997465940386,0.9103412447226986,0.12260613646463803,-0.34627728060468543,-0.7535696679382332
2.504691406250002,-0.7893253784410155,-1.3288889803829345,-1.8694726642817212,1.3818461020756512,-0.8487842531217926,0.011401311345266521,-20.924999771127485,15.02812873839864,23.803118743887225,9.165433050834451,3.337724913650714,-1.0052605532252188,0.3769141772029011,0.11472978106238797,0.13974293476794422,0.9084239519634155,0.10987242516883512,-0.3473079324718335,-0.7672945043354287
2.514691406250002,-0.9140869065886771,-1.422786054834899,-1.967635605645874,1.4061864069398156,-0.9958608521586885,-0.0012364719059305366,-20.981249389657762,14.9062539291335,24.074994125356955,9.17562584660286,3.3461473832225095,-0.8825834536192092,0.3823939042599123,0.1095543031479047,0.1420073677565115,0.9064195402075799,0.09589237293914443,-0.3482060342429713,-0.7815595928345362
2.524691406250002,-1.7248450001314561,-1.6952583307564137,-1.1535623541023647,1.3594180225672192,-0.9166546657605216,-0.04280506806536088,-22.05000114440918,13.968750953674249,24.26250076293942,9.185891591635876,3.3475554271032166,-0.7617614767835216,0.387673173272224,0.10460957520306023,0.1438773637747939,0.9044606430509857,0.08273952426983482,-0.3483589400098495,-0.7953010793350129
2.5346914062500017,-2.117562881619086,-1.6774819245962869,-0.8601489325174543,1.2513889144029728,-0.7084866499230525,-0.1354739918138292,-22.059375762939453,13.584375858306824,24.084375381469698,9.196907663130009,3.3366852788786385,-0.6671100091946013,0.39273320605751344,0.1006497893794594,0.14471421161609513,0.9025766971538366,0.07241379472997465,-0.3471800359540766,-0.8081167815201756
2.544691406250002,-2.402955792953142,-1.6543270308245928,-0.5195019857620031,1.1314450964941558,-0.454411639868598,-0.2506383301121787,-22.068750381469627,13.200000762939592,23.906249999999865,9.208564430979273,3.321963884769956,-0.5801248930608456,0.3976916342614108,0.0969572195479946,0.1452304699900192,0.9007461352078376,0.0629164565758587,-0.345584125722105,-0.8205616225488935
2.554691406250002,-2.158705336099122,-1.5454302461882414,-0.2274944529510654,0.9933214791064678,-0.24242842220173427,-0.36002238534107367,-21.50626411404449,13.98748096514416,23.13751953077301,9.222889262837406,3.291033647511875,-0.5266051453411862,0.4021255245480271,0.0944274826257994,0.14438149386613258,0.8991822442588969,0.05703666007878003,-0.34223412625571953,-0.8312059313166097
2.564691406250002,-1.4169536564057754,-1.2144828354375878,-0.8079451540574111,0.8776752493235289,-0.10618589493288537,-0.416549801587216,-21.0000000000002,15.356250762939265,24.112501144409038,9.237921924116751,3.25400440665357,-0.4922216950983365,0.40602220460372845,0.09257901605967765,0.14291758538576277,0.8978563830160172,0.053233051397940205,-0.33822856228109227,-0.8402923737716989
2.5746914062500017,-0.6362833485517545,-0.9873358399623232,-1.4483988318152436,0.840446261842659,-0.05278813827525021,-0.390144931549215,-22.124972534850418,14.306276206348857,23.30627120922679,9.251606553073007,3.218658055859306,-0.4670459449081115,0.40983595612579776,0.09118477661854367,0.14136526817503048,0.8965112986574437,0.05044036210967331,-0.33441014438747163,-0.8490438725036443
2.584691406250002,-0.21942487619520723,-0.8845049362220929,-1.8146973046757444,0.8520486027561841,-0.06926701640832499,-0.30616063529336685,-22.275001525878974,14.793750762938968,23.77500152587893,9.262530623470356,3.190688173037444,-0.44180382624606074,0.4135341916568754,0.08993167952525474,0.1401938045430725,0.8951225738872947,0.0476622544843569,-0.3313921734475115,-0.8575806044419424
2.594691406250002,0.030526160026738077,-0.8425453929184463,-1.620340285450269,0.8579449591826583,-0.12799324164584874,-0.1965805616044249,-22.668741150155743,12.075067137050821,23.943746261725234,9.270234283598898,3.172483628046401,-0.41013921611849097,0.41720608631464495,0.08859416205251407,0.13964344605596327,0.8936368663535789,0.04421399896156474,-0.3294295671534368,-0.866225925923586
2.604691406250002,0.043293703861954656,-0.6029211185423747,-0.9886712037385854,0.7959614402805762,-0.2065231938842598,-0.08006236843870582,-21.900001525878913,13.80000019073485,24.093751907348512,9.274268060650545,3.165569570401425,-0.3703213893549003,0.42063388565850823,0.08709943691353275,0.1398463618589907,0.8921443739353909,0.03990874962169138,-0.32868454873971803,-0.8745359882143787
2.6146914062500017,-0.0757859371469771,-0.40978910237512417,0.07642517068671521,0.6322880738241885,-0.2718208512770498,0.02768857736846534,-21.956249771161012,13.725002212475044,23.400018462730458,9.274873548747129,3.1687944355020807,-0.32477423366486036,0.42317301889162895,0.08543962601104586,0.1407564493543525,0.8909606533749388,0.03500196095524473,-0.3290320133059715,-0.8810246646802543
2.624691406250002,-0.4043617209554644,-0.3153684475260656,0.3434005487493445,0.4067864356822965,-0.3154879781991394,0.10865544729092802,-21.900001525879087,12.018750190735073,23.512500762939723,9.272710361252429,3.1792850736322142,-0.2812621948218973,0.42462874857398497,0.08388129897851626,0.14207981337236344,0.890206115082485,0.030322610729201744,-0.3301626372415247,-0.8851070753041239
2.634691406250002,-0.7682549164996344,-0.4134572088385276,-0.5559715294389724,0.2681122168523638,-0.3229932819288991,0.15251778461118112,-22.93122634949183,13.199971924518472,25.031214829368828,9.2689900872804,3.1930444125200625,-0.24589119611855484,0.4254227314681977,0.08267986972836143,0.143445379787333,0.8897204115149417,0.0265218185170433,-0.3316462516291564,-0.8875975303478808
2.644691406250002,-1.0511108514444665,-0.43590237154101524,-1.1898851871913074,0.2831527330629761,-0.2929726800179562,0.15515984327412297,-21.2812500000001,12.562500953674483,23.418750762939297,9.264764423413542,3.207444750439151,-0.2154172685141093,0.4261768682735313,0.0817228943099663,0.14475831853454113,0.8892350659442897,0.02323614117856286,-0.3332380018261215,-0.8899330543880033
2.6546914062500018,-1.06935308435764,-0.2113459387410449,-0.9569885055080234,0.3547025391478968,-0.2529375633774825,0.12366827472170562,-21.843736267425207,13.499978066049664,22.53752189584621,9.261154793143701,3.2196167956190442,-0.18574534642781923,0.42736626807519135,0.08082927945596265,0.14593402991835694,0.8885533577504559,0.020018915376123003,-0.33463773645022615,-0.893232873281583
2.664691406250002,-1.0576103651234814,-0.020307652198723634,-0.7192528797035198,0.4034807107582085,-0.2001273262374293,0.08579458085146603,-21.393751144409887,12.037500381469744,23.92500114440909,9.257844943973634,3.2307708267423685,-0.15715796814117053,0.4288909390718634,0.08000045273320132,0.1469047966515071,0.8877334545052377,0.016973878587795335,-0.3357177456036176,-0.8972458805877319
2.6746914062500022,-0.9661135350464977,0.08427724264972916,-0.4723822104940871,0.4234265036631503,-0.1454135836471309,0.051593675157667086,-24.581173326485505,12.112498359729551,23.531259612830276,9.255771795784117,3.2378229181290803,-0.13216130295302803,0.4304408855745013,0.07926134128467797,0.14766329662359728,0.8869233687437627,0.014277746178534126,-0.33647951069108334,-0.9012432802116225
2.684691406250002,-0.9475995748465724,0.3421161560497883,-0.335685709795711,0.4276513929480236,-0.14121633671870684,0.00361727396660126,-24.581251144409038,12.112500190734727,23.531249999999954,9.25487221853847,3.2413246844265755,-0.1067695496657811,0.4320429456741081,0.07843055887242627,0.14826073649565252,0.886118238382841,0.0115360394835279,-0.3368578160890419,-0.9053437990376321
2.694691406250002,-1.0905853183440013,0.9888730765668834,-0.5222637362133784,0.45495068244343007,-0.17427992213635327,-0.051696807580364865,-23.943765945073118,11.493765678027547,23.32500579819825,9.254801508969352,3.242336238291592,-0.07823243129185568,0.43361266215756117,0.07739109064212273,0.14881797222371385,0.8853490062390408,0.008452939068045444,-0.33696712561415443,-0.9094139657613574
2.704691406250002,-1.440147784770753,1.8248463480154102,-0.7181600965683123,0.5454368711623998,-0.17323256547875515,-0.08828655407066467,-23.343750000000213,12.768750190734904,23.306251525878942,9.25456231779984,3.243608593508902,-0.04770929326763268,0.4355764890730456,0.07633513220592604,0.14940321502690282,0.8843773101141522,0.0051551439241116674,-0.3371045846591986,-0.9144196895798977
2.7146914062500023,-1.6658360366678344,2.125960154887829,-0.5744437738644922,0.6761505577239362,-0.1402734020313564,-0.10416706159904875,-24.29997779900414,12.95624561320994,23.474996261725234,9.254277955494599,3.2447292952121236,-0.01534829067880769,0.43807306753181935,0.07528451318763514,0.14998367301494075,0.8831346656696866,0.0016584968096556075,-0.33722567794696845,-0.9206722236550292
2.724691406250002,-1.9723594706702599,2.0848343583645956,-0.5385908068596352,0.8107794895161187,-0.10706894920757724,-0.12036145620562244,-23.606250762939663,10.462500572204897,23.212501525879063,9.254474226463312,3.2441235286249914,0.01792654199758212,0.44118075811422736,0.074238060072214,0.15048261303778784,0.8815895070001338,-0.0019973140628670783,-0.3371840405874695,-0.928335514846061
2.734691406250002,-2.006056828415551,1.907200640453496,-0.5813515524517477,0.9280717790653645,-0.05039248938811347,-0.13659529120140593,-24.5437278753148,11.8499665077899,23.924983749823756,9.255491494006206,3.2408245796994706,0.049079127120060406,0.4448823766848491,0.07331224086183545,0.15078565612394132,0.8797525445173804,-0.005477991017378666,-0.3368730320065843,-0.9373103766626114
2.744691406250002,-1.6175551793801732,1.5979197262923224,-0.6206623789310255,1.020085213316024,0.027825006682047116,-0.12216211384478937,-22.950000762939617,11.081250190735117,23.83125114440949,9.256380437053952,3.237828689310586,0.07847767843352416,0.44911569336056223,0.07266916040296825,0.15091425259726166,0.8776298286088735,-0.008477993274781253,-0.3364801115387569,-0.9474260848966042
2.7546914062500023,-1.276699517159899,1.274554209611421,-0.5333881153786064,1.0875897265672307,0.09209405195613207,-0.07332572303927064,-23.68123367351308,12.224972458563048,25.218718033645587,9.256552018803449,3.2366554104295933,0.10285376914065524,0.45375851224656233,0.07232002112235328,0.15105294056602742,0.8752430021554225,-0.011111029572987947,-0.3363533577449954,-0.9584632391991744
2.764691406250002,-1.1399968653770516,1.0468779298402526,-0.28996532452918755,1.1289736165183921,0.11226032598014217,-0.0221735544998065,-22.368751525878956,11.437499999999996,23.306251525879183,9.25548000535499,3.238829733017863,0.1277709181268776,0.45861359250062145,0.0720741029263569,0.15135108389347515,0.8726772655838395,-0.013804101769791579,-0.3365882367269874,-0.9700623445799512
2.774691406250002,-1.091449493294673,0.8739424130443403,0.04742636018502895,1.1453391507761064,0.12106944722732609,0.013097299112072903,-22.612495193636082,11.418751220673318,24.56247123792229,9.253546179216249,3.2432164103405485,0.15390699008848216,0.46355657168907227,0.07185303730135532,0.15178124948574515,0.8700048946367912,-0.016630810397871433,-0.3370622123363833,-0.9819461627204497
2.784691406250002,-1.1111613119868384,0.7132422484515967,0.3062611501427833,1.1459926858208438,0.16424071026607862,0.03372971242395132,-22.83750152587913,8.718750000000117,24.86250114440894,9.251234092169005,3.248624813954357,0.17725034025926528,0.46853387311528133,0.0718014007990667,0.15219357089884067,0.8672665782365995,-0.019157385767556167,-0.33764664479927414,-0.9939069537207084
2.7946914062500023,-1.0660906059292357,0.46094663056144153,0.5640954262833197,1.1385702898309924,0.23841566434297828,0.040528866311349526,-23.86872634949183,9.243737755120838,23.79377685484082,9.249204141381677,3.253410855634368,0.19465742499124516,0.47353665561427194,0.07201682142757429,0.152431555546952,0.8644850798724228,-0.021042788389757802,-0.3381639396936868,-1.0058473756427317
2.804691406250002,-0.9203794599906474,0.12725990738290388,0.7820612298242579,1.1206318791819343,0.3061946844230187,0.042811476765165675,-23.250000000000128,11.118750572204577,24.13125038146991,9.247756855817585,3.256817400821649,0.2061842685473687,0.47862039540974005,0.07248349309362952,0.15245230859769407,0.8616380947310246,-0.022291910538028887,-0.33853218961276127,-1.0178873369334724
2.814691406250002,-0.6016337312968625,-0.1874814679507873,0.9437925375623312,1.0845154305219264,0.3524589722883855,0.056289677152759274,-23.831236954053956,11.062501373271449,24.95623100328086,9.246541109340914,3.259834821697596,0.21295545305214295,0.483625325825652,0.07314569349155435,0.1523392003978596,0.8588029852868966,-0.023026765528238395,-0.33885840073283324,-1.0296887270632122
2.824691406250002,-0.16987954256949606,-0.4732874144943926,1.0268637452860865,1.0125432116103896,0.37580485920781426,0.10989332567861756,-21.76875114440906,9.356250762939148,24.35625076293964,9.24420676338873,3.2662715039233534,0.21558789944153864,0.4883825292686667,0.07404647255721002,0.15229411496878756,0.8560376367876025,-0.023317166286457598,-0.3395544613432098,-1.0409122708318983
2.8346914062500024,0.14543416345637417,-0.7211104384381141,1.018800428614106,0.8961254185751912,0.4052481853219782,0.20375880761067494,-21.225013656310626,7.987533606680763,25.199980164077303,9.239322016883806,3.2802989561016234,0.21173642690662278,0.49265873811098404,0.07536384328712202,0.15246426497111285,0.8534386857848425,-0.022912686263880128,-0.34107203474332415,-1.0510129350967843
2.844691406250002,0.5686323600248503,-0.94325441824663,1.065169470412807,0.7393204478022484,0.44219637823672375,0.32906883998042274,-22.912500381469858,9.450000762939148,26.47500038146917,9.230807965530534,3.304905322139836,0.19965215730191443,0.4962607335283941,0.07722619919747227,0.15295343150080012,0.8510949835808557,-0.021625040132989264,-0.3437361035080948,-1.0595318924920878
2.854691406250002,0.9197849544960046,-1.0902933628749425,1.1063431010803233,0.5500258403887573,0.4294528497387995,0.4674931169956961,-23.51248611485039,8.081283606680763,23.96256286468492,9.217880068544941,3.3417253772321507,0.18284136110148103,0.4990179954224739,0.07949484991600463,0.1539414144393578,0.8490940448990223,-0.019832303457859458,-0.347727235321386,-1.0661450248342657
2.864691406250002,1.0929200614073795,-1.1230975780484134,1.1610007096215762,0.3424176861053492,0.3295428796883477,0.575949683016269,-20.643751144409794,7.875000476837104,24.206251144409425,9.201018047801929,3.3885891557273866,0.1687206071928999,0.5007127020640718,0.08174171424186061,0.15554812274163743,0.8475893798426948,-0.01833470261617634,-0.35281529571177034,-1.0704474947037477
2.8746914062500024,1.025454537284952,-0.9978624880801896,1.1278125845767335,0.13206621481913158,0.1743840020565581,0.6189635151221562,-23.418683015580044,7.631256332254443,25.31247489993302,9.181950414723739,3.4402591206707376,0.1617451092751155,0.5013277992632786,0.08361649855985591,0.15766266606833684,0.846651977169784,-0.017613679051620174,-0.3584358856954739,-1.0724159846102892
2.884691406250002,0.7020620198918213,-0.6343369491416093,0.9580976385320003,-0.048620512422014386,-0.0033224551932154803,0.5749389578947123,-22.518751144409077,7.668750286102357,24.468751907348643,9.163183536645315,3.489841885218454,0.16420825225793156,0.5009629308115321,0.08483496117940832,0.1600294296046356,0.8463027345263517,-0.01791896440551237,-0.36384025749474985,-1.0722451379954148
2.894691406250002,0.22261442546282345,-0.07630141863222709,0.7408459601788867,-0.1619274859747193,-0.17321812649405444,0.4452018311593963,-22.050012588221485,7.949993419814912,24.506249466001993,9.147436464947713,3.5302986840475685,0.17736051573342804,0.4999629880102449,0.08519999802894523,0.16232862958290845,0.846419637677988,-0.019387229028870277,-0.36825799886944705,-1.0706878457851459
2.904691406250002,-0.19574832995627928,0.5007690365837352,0.5509431231992257,-0.19343394506765432,-0.2532104445944545,0.2829267298784369,-22.631250381469606,7.143750190735029,24.975000381469464,9.136112655787914,3.5585511687113742,0.1958821940715185,0.49880689181959814,0.08494839545025765,0.1642288581157955,0.8467605780011119,-0.02143750020757651,-0.37134751787875936,-1.0687250321075437
2.9146914062500024,-0.35988284959374617,0.9953730350282108,0.4423923148774141,-0.15239528058974103,-0.225728250352821,0.13815029199331139,-22.087514800673212,7.893731880635208,23.793779601337096,9.129137446181469,3.575451561737978,0.21285104883325542,0.49776480678670976,0.08446499633755779,0.1655564829962454,0.8471638147427608,-0.0233114924190111,-0.3731974709712647,-1.0668550326746222
2.9246914062500022,-0.18279779995190565,1.3040968202723886,0.4816255306571767,-0.06571043547970118,-0.1428432623644331,0.0312877827480773,-22.106250762939617,8.268750190734568,26.343751907348146,9.12578409297043,3.583236286479518,0.22544801869256262,0.49718121340143684,0.0840077764727406,0.1663041960190994,0.8474056760035332,-0.02469949357792968,-0.3740500723782868,-1.0658542502949666
2.934691406250002,0.2297358766721031,1.3498162115991499,0.666048497108269,0.03250266466357512,-0.07341935876702789,-0.03903676133500827,-22.83748367351308,6.937532977257121,24.131304396301058,9.125238491195319,3.5839540663598095,0.23590548694072722,0.4971929387891684,0.08356349875931508,0.16661152858633116,0.8473823316314862,-0.02584617499696218,-0.3741286874246348,-1.0661168301960686
2.9446914062500023,0.6064208774813203,1.1556719097676234,0.842489831734752,0.10548405833998437,-0.04360334696005922,-0.08479744449415871,-22.51875114440922,6.637500286102557,24.093751907348693,9.12684679639425,3.579111869340366,0.2469163781913372,0.49759495696791695,0.0830148699677811,0.1666396291047129,0.8471947053071845,-0.02704716341011437,-0.37359831585076325,-1.067235819381406
2.9546914062500025,0.8441738831873931,0.8763235804733769,0.7131925250787726,0.14042339643304355,-0.015366290648582425,-0.1178369549290444,-22.687495880255515,7.818721543060442,24.356244354432512,9.130215996371946,3.5698664026914395,0.2560548129376086,0.49816919474647164,0.08245972675000146,0.16639971395723605,0.8469585486431865,-0.028037366901517376,-0.3725858859269961,-1.068659566201318
2.9646914062500023,1.2006067423568916,0.6457280203333835,0.39849928814094515,0.14263156767926274,0.039575618289635454,-0.14434559665188457,-23.831251144409016,6.75000047683722,23.26875114440959,9.13518352397905,3.5569229832181493,0.258959893792153,0.4987937836550225,0.08208798689064588,0.16582130343775944,0.8467404104762482,-0.028339972773482252,-0.37116922851694995,-1.0700167021737519
2.974691406250002,1.6606277713990552,0.5039611010076623,0.1298850740306424,0.12569534563376134,0.07805437660009065,-0.16243176949553464,-23.10001823383555,7.031243610549775,25.10620590320453,9.141322849833044,3.5412819491908603,0.2566217068065509,0.49947124873894205,0.08188368131735273,0.16497614257790572,0.8465259278515296,-0.028065390406552405,-0.3694583514227657,-1.0713495528012014
2.9846914062500023,1.8428943638514796,0.4558318955909538,-0.020927509651516466,0.10339694188472208,0.0685886646026739,-0.17851646619061373,-22.89375114440896,7.256250381469369,25.968751907348633,9.148142166116221,3.5238341806113205,0.25372913105306405,0.49998600815539734,0.08162068875423717,0.16404993665833695,0.8464274329928613,-0.027728536338172384,-0.3675511718322983,-1.0722630800847466
2.9946914062500025,1.7217573266680248,0.5375740205823696,-0.20970604514275248,0.09294386258915874,0.05034944194718775,-0.20799077315493847,-21.900025786751634,5.643789557453778,25.950001220719884,9.1557573173486,3.5041652424370793,0.25139015670954146,0.5004310177688273,0.08125636867193761,0.163044129050398,0.8463938053927295,-0.027450238330159887,-0.3654029115066572,-1.072995044646608
3.0046914062500023,1.4537509451423676,0.7308148412209747,-0.4153028758176876,0.11261289588438478,0.06524267922760124,-0.2637958439780141,-21.67500114440928,6.993750095367402,25.10625076293948,9.164937227813411,3.4803478038617013,0.2475748662910577,0.5009472377354475,0.08085402080070113,0.1618034892342384,0.8463648970111876,-0.02700686867388701,-0.36280395523897824,-1.0738104765824317
3.014691406250002,1.2023670062224525,0.8767692156585365,-0.5133650673320884,0.15828735386234788,0.13711519090485474,-0.35259558082425557,-22.124989013968126,6.8625033949999805,25.23749794013242,9.176978314970638,3.4490902100166707,0.23836465259136003,0.5016635707212674,0.08051920211107698,0.16006212271719836,0.8463032362228081,-0.025968953268619217,-0.3593971413880309,-1.074891821115638
3.0246914062500023,1.3191968338211084,0.9233491395477659,-0.6128628206960558,0.2153930301421272,0.2586559930352273,-0.47160773054468424,-23.40000152587853,6.4500002861024655,24.918750762939347,9.193218451366052,3.406778980391529,0.2194944894178663,0.5027787100202027,0.08037510930537,0.1575245127360513,0.8461304423914442,-0.023872444259440944,-0.3547926667289162,-1.076583224151591
3.0346914062500026,2.01250689918513,0.7871325478537988,-0.7066684505367007,0.27751565623349594,0.35571801899437744,-0.6017267867957002,-21.712542723603125,7.218731708980355,24.43126342742505,9.214245635355546,3.3510444645699784,0.19325597263005942,0.5043736713924675,0.08026401707014229,0.15413836505048129,0.8458145208817079,-0.020972236402824952,-0.34873932593237494,-1.0791106920986686
3.0446914062500023,2.9831719575677704,0.4575028996427729,-0.7420571637747669,0.3255093834202632,0.34942310114037184,-0.7123606163143582,-20.73750114440946,8.137500762939029,25.35000038146956,9.239272287415186,3.282721925915108,0.16878922264974242,0.5062355332165186,0.07975972050590893,0.15020892864040475,0.8454563352787039,-0.018267947784509384,-0.34133661119091624,-1.082181863884701
3.054691406250002,3.8244988447117714,0.09173163150539856,-0.7838314198716178,0.34067814280797937,0.23120365268158286,-0.774558527500453,-21.99372085645261,6.225047072233245,24.600018691569414,9.266281732899184,3.2063620682358245,0.15526909543643586,0.5081728740475422,0.07854822954874066,0.14621003789001633,0.8451085171843319,-0.016755069591461936,-0.33308554405028357,-1.0855819929910728
3.0646914062500024,4.281497714429446,-0.19971733819680607,-0.898400191017067,0.3333384512115949,0.046210945600789866,-0.7712072857163269,-22.38750076293929,6.375000476837233,26.025001525878753,9.292736681282165,3.1287451926709813,0.15791861134334884,0.5099301510578926,0.07654758343199107,0.142615487559424,0.8448481091272814,-0.016991190365398354,-0.32472220450108485,-1.0888711213131865
3.0746914062500026,4.269077319371917,-0.4360870277928613,-0.7814069537042772,0.31937775902088006,-0.16997906511365757,-0.6973882572157588,-21.65626785236579,6.7124918558319,25.350016860587356,9.316142139705118,3.0571216053323806,0.18041545084025706,0.5114549233819066,0.07379632649399405,0.1398563155509193,0.844632747473426,-0.019361468346934724,-0.3170251188965713,-1.0920508707526981
3.0846914062500024,3.6174703212498067,-0.725666688465279,-0.3510511565098131,0.290007897048145,-0.3931034298992325,-0.5628142557798615,-21.20625114440935,7.687500476837171,25.162500381469794,9.334487846272555,2.9976831441619227,0.22427574706354253,0.5127441340275819,0.07040686397761199,0.13825062513956857,0.8444048737257642,-0.024019661562231145,-0.3106521034603392,-1.0951883104861968
3.094691406250002,2.4576185880628576,-1.0813627542094397,0.16661664090907669,0.22970922783472356,-0.5554586730443759,-0.39684014491967196,-21.97498161363617,7.743748722119268,25.46249420181109,9.34687746329415,2.953766950960763,0.2834082552887279,0.5136862507434568,0.06672705489474721,0.13779085124813079,0.8442064175834162,-0.030310143514797657,-0.3059517378883967,-1.0979397833302103
3.1046914062500024,1.2802387895114142,-1.3708246212313284,0.6038533482697664,0.14373751246160582,-0.6191989984641434,-0.23378039223893324,-23.100000381469517,7.031250476837679,25.106250762939627,9.353612579445791,2.9254818893843186,0.34766179998050206,0.5140732997804377,0.06317377733832018,0.138220422165738,0.8441742330204578,-0.03715066559905782,-0.30292808967246043,-1.099641444154514
3.1146914062500026,0.25809975502262195,-1.5022630918346385,0.9197498398781573,0.054786222136188646,-0.6093342590801057,-0.10092008103901814,-22.162523269094294,9.374942780950219,25.89373191879523,9.355790005059802,2.910490414149679,0.40968094446002606,0.5139799129245762,0.06001528289459478,0.13922449339167906,0.8442968266482594,-0.04376069350246055,-0.3013267661294627,-1.1003254361833978
3.1246914062500024,-0.6563453110147957,-1.4561567985384067,1.1059568334606897,-0.014762676849425753,-0.5225203368101842,-0.022742363023693438,-21.7875003814699,6.900000095367506,25.650001525878974,9.355312997900295,2.904185463871745,0.46238038938783654,0.5136391505050855,0.05746935858380066,0.14038478942031757,0.8444897805751326,-0.04938406877473816,-0.3006535444795161,-1.100371077077214
3.134691406250002,-1.1814785332064888,-1.3047330500419372,1.1189008003762082,-0.03896593164085348,-0.3361772180657735,-0.006047891837235849,-22.574981537325467,7.237491951187676,25.968744125546955,9.354658241386808,2.900617022238806,0.49707565534984455,0.5133827092095605,0.055804306494019865,0.14117648189847248,0.8446259379763269,-0.05308670401943398,-0.30027258633128884,-1.100335455687112
3.1446914062500024,-1.1311147698408832,-1.2383059600075812,1.0680829829486185,-0.006138551455560838,-0.10044104776022832,-0.03491368143493295,-22.856250762939162,8.981250762939366,24.600000381469904,9.355875576996166,2.894371352917284,0.5104642619544869,0.5134570065408154,0.05505473202357676,0.14125166344136075,0.8446175248144236,-0.054506777598925055,-0.29960596905894005,-1.1006692832697564
3.1546914062500027,-0.7322667155382978,-1.3239503081287973,1.036535670759895,0.04921163348298852,0.1203198718030028,-0.07070294849911696,-21.543782805613848,8.587510185011565,25.406232223954255,9.359448925107483,2.8838121913489236,0.5045993856154677,0.5138725604907112,0.055086234526777425,0.14059196723862794,0.8444726069354905,-0.05386140476262525,-0.2984792616000852,-1.1014117655359013
3.1646914062500024,-0.251964164965888,-1.5395768702275978,0.9300723924462277,0.07701942636094221,0.2982723795188605,-0.079258214838985,-22.687499999999627,8.100000381469671,24.37500190734859,9.364509838094726,2.8711288102760384,0.48238854273855364,0.5145551577365071,0.05581879542091239,0.1393784837983654,0.8442096578350079,-0.051467241884310684,-0.2971263642284074,-1.1024723051315377
3.1746914062500022,0.28137763799568793,-1.7190550880490885,0.7690930155296736,0.05704741697549233,0.42222755136371903,-0.040179873247034065,-21.281284331436915,7.893755226016934,24.206255264200237,9.36931158986511,2.8611010990311807,0.44729720327337724,0.5152794467097443,0.057195657546903526,0.13793303649153998,0.8439128598049122,-0.04770464390999077,-0.2960570939621953,-1.1034459894607278
3.1846914062500025,0.8581011490865504,-1.6844774817254384,0.5628873611416854,0.016565870733156872,0.4937638093900273,0.04782074740861867,-20.64375114440941,6.525000095367991,23.64375114440976,9.371913369877134,2.859076083446095,0.40348326625937664,0.5158339045595534,0.059149690348513556,0.13662090403006535,0.8436526862331507,-0.04302563741463858,-0.29584119910360207,-1.103973784218434
3.1946914062500027,1.3215394441050152,-1.6882209948548053,0.38618550564035603,-0.017616220730536154,0.5104734764609217,0.16560670113567336,-21.50622932487375,8.624948731723293,25.818697282199352,9.371157550781422,2.8677830483871043,0.3564224823863176,0.5162033691167465,0.061516475799542746,0.13571320182193408,0.843403874808046,-0.03801506569989898,-0.29676963154955194,-1.1041442717440775
3.2046914062500025,1.6155721501601077,-1.7482936902452164,0.28475400519250665,-0.04871920341162192,0.48502252525131234,0.29068834334979654,-21.09375000000013,9.2812499999996,25.18125152587868,9.366629976434757,2.8878372882255072,0.3104733261652793,0.5164040413682545,0.06412670368977834,0.13535450749112746,0.843144147371521,-0.03313364680038315,-0.29890898170581665,-1.104070526386849
3.2146914062500023,1.688483484796508,-1.783457706996818,0.26408753252948053,-0.0813763830840953,0.4309385914520025,0.41005278687888846,-21.581239242816444,7.781287097024894,24.337522124741053,9.358270458225354,2.918959001675778,0.2685846595131908,0.5163990008019333,0.06683890277173311,0.13561615352712847,0.8428944567529061,-0.028691175288678344,-0.302231754131871,-1.1037050103865809
3.2246914062500025,1.4075481627525317,-1.8250596767492158,0.3096433923847008,-0.12154795233393137,0.3599217118686729,0.5070909462044014,-22.10625076293897,8.325000762939224,23.83125114440938,9.346539947440299,2.9593613956332856,0.23236198688267148,0.5161231676164635,0.06952285070158883,0.13646874090653838,0.842708571230334,-0.024854386028902033,-0.3065504303289665,-1.1028959926596538
3.2346914062500027,0.8617019633244805,-1.7989822499805521,0.392855032491075,-0.17189058787836098,0.295247005761862,0.5665805317303115,-20.287544783470704,7.462521151998333,24.581232834309525,9.332371190159309,3.0059949835337116,0.20100476757757235,0.5155880107101072,0.07212946669197703,0.13775625490229354,0.8426074807428621,-0.02153389056311109,-0.31154244763970873,-1.1016208520762951
3.2446914062500025,0.29575619626483407,-1.670650722101817,0.4789532770607504,-0.22643239657862946,0.25025532026631203,0.5902057494726106,-21.52500152587906,6.825000286102394,24.937501907348835,9.31674286195102,3.0558279209947976,0.1724842878598584,0.5147544640006361,0.07465498750627743,0.13929415982137577,0.8426442137241749,-0.018510019647661,-0.3168857020641701,-1.099717671680891
3.2546914062500023,-0.13774175143026401,-1.502858869444366,0.4514477721082048,-0.26111041792596146,0.23672878637146458,0.5884661551929067,-22.10623657263082,7.1999911310524505,25.68748359724895,9.30048003979346,3.1064208972774536,0.14400702277089747,0.5137194048419467,0.07716804576926599,0.14089172579728504,0.842783807511955,-0.015481234521194197,-0.3223199293063352,-1.097339436292963
3.2646914062500025,-0.4169478343500294,-1.3576966652649456,0.4033451280332195,-0.25108643396814445,0.24775827622499627,0.5762097305974543,-20.100000381469915,5.88750028610278,24.562501907348462,9.284020819391948,3.1564827193964695,0.1145622823747927,0.5126711658964387,0.07970750052014651,0.14244769883646904,0.8429242877220038,-0.01233775748250926,-0.327706804567461,-1.094899881197398
3.2746914062500028,-0.6703700969335485,-1.2501929499338496,0.3966754940707298,-0.20454696853850957,0.2641849042747526,0.5661057497345342,-20.81248260541464,7.706205788745528,23.906266021383765,9.267342294385243,3.206035751476678,0.08496792451245223,0.5118325407931732,0.08227608501670508,0.1439636297763238,0.8429296046396233,-0.009166822295859557,-0.3330487482744316,-1.0929420041330686
3.2846914062500026,-1.0611427031323708,-1.1413055968347932,0.2740802640013993,-0.14951270375397996,0.30822375009735414,0.5588754058762421,-21.8625011444085,6.787500381470031,24.525001525879077,9.250310878500168,3.2555221517983,0.05258820654999613,0.5112650208187035,0.08501461070906038,0.14538060500151076,0.8427589472150663,-0.005683237941015645,-0.33839334216468,-1.0915672574959552
3.2946914062500023,-1.3136302642594428,-1.1002345256122599,0.34896149228036905,-0.11101562331615714,0.3751925034298431,0.5388340462475696,-19.312562254366878,7.931222172472392,25.181235504541675,9.233445656201262,3.3034365904133782,0.015496981336156408,0.5109562380103739,0.0879650400422629,0.14657766911397163,0.8424359789214317,-0.0016765232022593517,-0.3435776233301097,-1.0906913096378923
3.3046914062500026,-1.320674766270138,-1.2321108703583963,0.6144627070436852,-0.09596873821140878,0.41594275099227124,0.49556066600313675,-19.668750762939624,7.443750381469727,24.581251144409105,9.217779305575524,3.34687378575991,-0.023964461806856963,0.5108078587701789,0.09092488532456695,0.1474945974257775,0.842051774654366,0.0026014038877339185,-0.348285656509182,-1.0900900974090677
3.314691406250003,-1.3422783705434103,-1.4048732651293596,0.7917505779023765,-0.08913022487426132,0.42569308498154923,0.4324120946944431,-20.30623596227557,7.443750381469727,24.30000801069655,9.20406061348902,3.3839227728233743,-0.06349155653852658,0.5106894217810302,0.0937145066470791,0.14811916574611486,0.8417082281047547,0.006899482001452009,-0.3523076469108349,-1.0894762258988093
3.3246914062500026,-1.2589410951601088,-1.466003214475282,0.8476320242153488,-0.08620539988097897,0.4372776405398526,0.37761522593305835,-19.856250762940007,5.70000028610286,25.800001144409276,9.191990616160677,3.415593488178419,-0.10379913408805093,0.5106205934819622,0.09639695933773523,0.14847506135997554,0.8413843637792817,0.011293141052143869,-0.35575057946381405,-1.088896072359895
3.3346914062500024,-1.0989403194928957,-1.4811187792236389,0.8192219730500846,-0.09888319962908396,0.4311587079342943,0.36764422446897677,-21.937449189491993,7.818698655435779,26.15624321003266,9.18007108864491,3.4460515736407404,-0.14408164502298396,0.5104804759474085,0.09903417232894778,0.14878572208078955,0.8411081896921925,0.01569511393577996,-0.3590660147142975,-1.0881254711372168
3.3446914062500026,-1.1354749535123623,-1.477929867105227,0.7752964798020341,-0.13394828673069714,0.4127097115531864,0.4109511894706781,-20.512500762939357,6.73125028610203,25.76250076293954,9.166374446828929,3.4804145927552548,-0.18404761352053084,0.5101293390330465,0.10173562737059669,0.14930776610572238,0.8409060715406473,0.020077558353827813,-0.362811683000028,-1.0868935670571616
3.354691406250003,-1.3645565079900017,-1.403872601409416,0.740362092943393,-0.18850084051696253,0.4226877782903794,0.4863290264340213,-20.156258697315945,5.737524451619191,26.081243362607527,9.149507981435335,3.5219649987053185,-0.22698631108743628,0.5095144257828021,0.1047332395585448,0.1501101975324185,0.8407675228630197,0.024805900584552645,-0.3673479814496988,-1.0850436834785164
3.3646914062500026,-0.7559281830904482,-1.3762107804025054,0.6152084098398007,-0.25595163242433816,0.40410420753227383,0.5626119802631284,-19.87499999999998,6.431250095368031,25.875001907348548,9.129841286574061,3.5695697277580973,-0.27104586408866865,0.5086107831124174,0.10790790860402717,0.1511981958299962,0.8407182322945583,0.029681499886379192,-0.37255473601052913,-1.0825368330937737
3.3746914062500024,-0.006460227540731889,-1.495111390711994,0.45523163432041364,-0.348856531491375,0.1575005107689626,0.5880727353676223,-19.800002975391205,8.681195641893984,25.537508621051824,9.11004369259347,3.6178624482859436,-0.29655796409657087,0.5071430351400594,0.1101759097919845,0.1528945437409842,0.8410040838102295,0.03254163752390043,-0.37784728842829696,-1.0790521089364704
3.3846914062500026,-1.2987554495416758,-1.5010031468163296,0.6853080238457261,-0.46532150007929524,-0.08297505573454139,0.5466211345468304,-19.21875000000036,6.937500476837238,23.812500000000348,9.091587546206858,3.6634009216816725,-0.303852106874836,0.5049552950173516,0.11141812177552564,0.15505676803131246,0.8417603285806275,0.03340939836869794,-0.3828482318604925,-1.0741861017305212
3.394691406250003,-2.4899020971937946,-1.0786451132724786,1.0559815691994865,-0.5600440799643113,-0.026795636716700738,0.48504493061301424,-20.568717423281093,7.2374928667019995,25.124969864627733,9.073968518085785,3.705574056599609,-0.31880951015923065,0.502359020118277,0.11282468754071981,0.15692576703319633,0.8427792722165777,0.0351210363798451,-0.3874884857393705,-1.0681622573760226
3.4046914062500027,-2.591375593228005,-0.48522601530374754,1.0380589528899025,-0.6133197496520798,0.0378441104920998,0.4221555631813041,-19.72500038146995,6.262500286102554,25.725000381469567,9.057529751015093,3.743539289221753,-0.34190600552955763,0.4995683744375774,0.11443337441737365,0.15842465363351935,0.8439399281837031,0.03773153782511695,-0.3916732729098401,-1.061467222531121
3.4146914062500024,-2.806551330216151,-0.2502335995079787,1.019530539039268,-0.6415445725932358,0.10657376208511993,0.3613587262603675,-20.568729782607615,7.23747638760764,25.12501655539111,9.042570963983362,3.7766254172298135,-0.3726009570072465,0.49668669439188357,0.11622304981711233,0.15952542145261114,0.8451879171795733,0.041183216990045075,-0.39532604297126733,-1.0543478866927825
3.4246914062500027,-3.094713120610343,-0.35099004144019014,1.0875900384014927,-0.6783712424321049,0.23767714236838722,0.2893999107469015,-20.100000381469947,7.218750476837148,25.10625076293927,9.02963235079082,3.802855707887932,-0.4165657585684831,0.4938025519422866,0.11841438854916164,0.1599790307061975,0.8464867768651327,0.04610203566440099,-0.39822583478852797,-1.0468749384302685
3.434691406250003,-3.148673076322832,-0.5094552922535636,1.0977004001496142,-0.7406036299788424,0.439986342144641,0.2216972232788945,-20.92498100328097,7.181251010881725,24.41251731832119,9.01831830117129,3.8219208041718975,-0.48133748855981173,0.4909300159285564,0.1213497457537151,0.15957743528539467,0.8478156661244457,0.053324246086173956,-0.4003357885386142,-1.0389259077686426
3.4446914062500027,-2.7633723976887605,-0.5802747499856544,1.0848298859626788,-0.8353309286785977,0.6291559057761824,0.1892850062464664,-20.043750762939375,7.368750095367521,23.587501525879507,9.007176568182754,3.8363245149309573,-0.5669461298396479,0.48776810168373713,0.12505617011057746,0.1584871066258226,0.8493037867188948,0.06286250318951403,-0.401931169547691,-1.0298262015991697
3.4546914062500025,-2.319245059676027,-0.5465539925435032,1.183434902889375,-0.9582955617551111,0.7761675638683435,0.20903351436430825,-19.74375884990014,7.706241951187691,25.856195374906623,8.993974023666128,3.8505033431491307,-0.6702447879174049,0.4841463663815638,0.12949686003747354,0.1570321789996153,0.850977636456134,0.07438631967046633,-0.4035027638304587,-1.0192954641203305
3.4646914062500027,-1.9396135180135106,-0.3359996472626917,1.144589024446432,-1.0686881665771466,0.9098160441677173,0.27582425626887974,-18.91875076293923,6.9937500953678216,26.062501907348377,8.97626968263065,3.8689309324547057,-0.7899611812026607,0.4801147956802559,0.13476160024330175,0.15546112185884792,0.8527291401439147,0.08778308925339841,-0.40554699905396013,-1.0075235072773427
3.474691406250003,-1.582008297708165,-0.34709306407138135,1.0870188819705267,-1.1314393207097224,1.0363876609535059,0.37636855017495163,-18.07502136180153,8.456214486038272,25.087525329017723,8.952580973793726,3.8940019964147767,-0.9237032209919553,0.47582693675145626,0.14084647843049952,0.15393762925081825,0.8544226622465945,0.10281889887688579,-0.4083311355068476,-0.9949335122092668
3.4846914062500027,-1.648997093778415,-1.0398810687239608,1.1283625176047296,-1.2158733674381768,1.150067993075951,0.48688611257346215,-18.31875038146965,6.787500381470391,25.612501144409393,8.922685810747916,3.924581794291072,-1.0710480820708228,0.4712453530140286,0.1477049940670759,0.15244372458502956,0.8560675475779222,0.11947188097185302,-0.4117314062016183,-0.9814303662501703
3.4946914062500025,-2.032226639317767,-1.4261948810955625,0.816288279335024,-1.3636421587807352,1.29788190694066,0.5602157692113134,-18.018758468430416,9.28118911892796,26.418731079591637,8.886341468555573,3.957296726593187,-1.238702578370997,0.4660375029542323,0.15551118095770008,0.15073375366242436,0.8578331879524685,0.1385097441788256,-0.41537449119882225,-0.9660816608445791
3.5046914062500027,-1.735034450862523,-0.9411177176467482,0.5191656165055543,-1.5083561995675379,1.4825721999390682,0.5883669542079423,-17.906249999999766,9.637500762939412,25.631250381470167,8.843388998126512,3.988881808480128,-1.429287951400009,0.4601667159143197,0.16431595472825286,0.14862802174315823,0.8597229803075622,0.16024514360124956,-0.4188972616460032,-0.9487490821074892
3.514691406250003,-0.9939339331316379,-0.47745783529276903,0.41339865150057903,-1.6170946354499305,1.6128076366746327,0.6263937979779207,-17.02502304020871,9.487503852768757,27.281211625092215,8.793685264729309,4.019276019526442,-1.6355288084038975,0.45381377849509574,0.17383501544924757,0.14629850838722094,0.8616233515090529,0.18389719241469576,-0.42229256461645726,-0.9300114996330029
3.5246914062500028,-0.48096667100025625,-0.25290023099161507,0.1897903182833381,-1.6625135043797328,1.6411926976605637,0.6909787983849841,-16.74375152587915,9.41250038146931,26.718751907348523,8.737318136088822,4.050819394148312,-1.8462099403345547,0.4471491198753059,0.18364943465684178,0.1441135033627744,0.863437745922839,0.20824859264819184,-0.42582176216554934,-0.9104882243064273
3.5346914062500026,-0.1542144538891199,-0.29597983264710226,0.09148371423586195,-1.6713020531888523,1.576141171539735,0.7573870323894136,-17.66247795162559,7.837538546583692,26.28751090981428,8.676151794942243,4.083584461944631,-2.051347520262352,0.4402906027763534,0.19330776253652063,0.14229838274803858,0.865154461751301,0.23218144829531376,-0.4294935768768742,-0.8906312760202765
3.544691406250003,-0.02332656132650133,-0.4964721755175399,0.281548002111334,-1.7109222169471978,1.4396198480364613,0.8110757589261557,-16.12499999999977,9.806250572204785,26.475000381469442,8.612799788792303,4.115664421474813,-2.245311071085153,0.4331372427020391,0.2024634568237776,0.1409197446150051,0.8668957529233258,0.25502753301846115,-0.4330945023925612,-0.8703068906326525
